SampleType	NumSample	numItem	accelX	accelY	accelZ	gyroX	gyroY	gyroZ
0	0	0	-0.00	-0.05	-1.00	-0.03	1.15	0.17
0	0	1	0.00	-0.09	-1.00	-0.22	0.03	0.54
0	0	2	0.01	-0.11	-1.00	0.16	-0.97	-0.21
0	0	3	0.00	-0.08	-1.00	-0.15	-0.91	0.11
0	0	4	-0.00	-0.19	-1.00	0.35	-5.97	0.36
0	0	5	0.03	-0.39	-1.00	0.03	-2.47	-0.02
0	0	6	0.03	-0.36	-1.00	0.97	4.71	0.92
0	0	7	0.02	-0.48	-1.00	1.66	8.34	10.17
0	0	8	0.03	-0.38	-1.00	-0.28	4.46	2.67
0	0	9	0.01	-0.23	-1.00	0.78	19.59	0.04
0	0	10	-0.07	-0.16	-1.00	-1.28	29.96	-4.21
0	0	11	-0.01	-0.09	-1.01	-2.84	26.21	-9.58
0	0	12	0.09	-0.01	-1.00	0.47	40.59	-3.64
0	0	13	0.05	0.10	-1.00	0.53	38.40	0.79
0	0	14	0.02	0.31	-1.00	-1.03	37.09	0.42
0	0	15	-0.04	0.36	-1.00	0.78	35.03	-0.21
0	0	16	-0.03	0.26	-1.00	0.16	29.65	-1.33
0	0	17	-0.02	0.29	-1.00	0.10	31.65	0.42
0	0	18	-0.01	0.40	-1.00	-0.03	26.59	-1.52
0	0	19	0.01	0.47	-1.00	-0.59	7.09	-0.39
0	0	20	0.02	0.39	-1.00	-0.15	-3.91	-0.02
0	0	21	-0.02	0.34	-1.00	-0.09	-9.41	0.67
0	0	22	-0.01	0.43	-1.00	-0.22	-12.47	-0.77
0	0	23	0.01	0.54	-1.00	0.28	-11.54	2.79
0	0	24	0.03	0.55	-1.00	0.72	-25.54	4.17
0	0	25	0.03	0.54	-1.00	0.91	-38.04	5.29
0	0	26	0.02	0.48	-1.00	1.35	-56.91	2.61
0	0	27	0.05	0.30	-1.00	0.41	-75.22	-1.33
0	0	28	0.06	0.02	-1.00	-0.53	-73.97	1.92
0	0	29	0.04	-0.21	-1.00	-0.84	-72.85	-4.21
0	0	30	0.05	-0.28	-0.99	-1.84	-57.47	-9.14
0	0	31	0.05	-0.28	-1.00	-0.59	-49.16	2.23
0	0	32	0.08	-0.31	-1.00	-1.15	-42.47	-0.21
0	0	33	0.05	-0.38	-1.00	-1.47	-36.04	1.29
0	0	34	0.03	-0.39	-1.00	0.47	-25.04	-0.46
0	0	35	0.03	-0.34	-1.01	0.85	16.28	-5.64
0	0	36	-0.01	-0.22	-0.98	-0.97	7.78	3.73
0	0	37	0.01	-0.13	-1.01	-0.22	-15.66	2.11
0	0	38	0.04	-0.22	-1.00	0.60	0.71	-0.46
0	0	39	0.01	-0.16	-1.00	0.16	0.53	-0.33
0	0	40	0.04	-0.16	-1.00	-0.53	2.71	-0.14
0	0	41	0.03	-0.08	-1.00	0.03	10.84	0.04
0	0	42	0.00	-0.02	-1.00	-0.09	10.21	-0.08
0	0	43	0.00	-0.04	-1.00	-0.09	5.46	-0.33
0	0	44	-0.00	0.03	-1.00	-0.03	5.96	-0.02
0	0	45	0.00	0.04	-1.00	-0.09	1.59	0.17
0	0	46	-0.00	0.01	-1.00	-0.03	-0.47	-0.08
0	0	47	-0.00	-0.00	-1.00	-0.09	0.03	-0.14
0	0	48	-0.00	-0.00	-1.00	-0.03	0.15	-0.02
0	0	49	-0.00	0.00	-1.00	-0.03	0.96	0.04
0	1	0	-0.00	-0.02	-1.00	-0.09	-0.85	0.04
0	1	1	0.01	-0.01	-1.00	-0.15	-1.41	-0.02
0	1	2	0.01	-0.03	-1.00	-0.03	-1.91	-0.02
0	1	3	0.02	-0.08	-1.00	-0.28	-3.72	0.17
0	1	4	0.02	-0.15	-1.00	-0.34	-15.22	0.23
0	1	5	0.04	-0.25	-1.00	-0.22	-13.16	-0.08
0	1	6	0.06	-0.33	-1.00	-0.78	-9.85	-1.27
0	1	7	0.03	-0.68	-1.00	0.16	-9.60	0.92
0	1	8	0.14	-0.90	-1.02	0.47	-9.66	-2.21
0	1	9	0.17	-0.52	-0.99	7.28	22.15	-2.21
0	1	10	0.13	-0.51	-1.00	15.78	38.59	21.61
0	1	11	0.05	-0.28	-0.93	-18.15	59.53	-1.83
0	1	12	-0.04	-0.18	-1.05	-9.15	65.09	-0.46
0	1	13	0.09	-0.15	-0.99	2.78	72.40	-6.46
0	1	14	0.07	0.09	-1.00	-3.53	76.15	-8.08
0	1	15	0.03	0.41	-0.99	-1.53	53.59	-2.39
0	1	16	-0.01	0.53	-1.00	0.16	54.34	1.48
0	1	17	-0.01	0.47	-1.00	-1.03	51.84	0.86
0	1	18	-0.02	0.52	-1.00	-1.03	48.53	0.92
0	1	19	-0.04	0.79	-1.00	-0.03	6.53	1.61
0	1	20	-0.04	0.77	-1.00	-0.53	7.90	-1.71
0	1	21	-0.02	0.64	-1.00	-0.09	-3.72	0.48
0	1	22	-0.08	0.44	-1.00	-0.28	-11.35	-0.21
0	1	23	-0.05	0.51	-1.00	-0.09	-14.04	1.61
0	1	24	-0.05	0.51	-1.00	-0.15	-28.66	-0.21
0	1	25	0.05	0.35	-1.00	-0.47	-25.29	-1.64
0	1	26	0.06	0.26	-1.00	0.41	-18.72	0.86
0	1	27	0.01	0.28	-1.00	-0.40	-27.79	-0.58
0	1	28	0.01	0.30	-1.00	0.03	-38.22	-0.83
0	1	29	0.06	0.21	-0.99	0.10	-42.35	-1.39
0	1	30	0.01	0.01	-1.00	0.41	-34.79	0.92
0	1	31	0.02	-0.07	-1.00	-0.90	-41.79	-1.39
0	1	32	0.01	-0.05	-1.00	-0.40	-38.04	2.79
0	1	33	0.05	-0.13	-1.00	-1.28	-31.16	0.11
0	1	34	0.03	-0.20	-1.00	-0.84	-30.35	2.04
0	1	35	0.05	-0.23	-1.00	-0.65	-35.22	0.11
0	1	36	0.02	-0.28	-1.00	-0.65	-29.35	0.48
0	1	37	0.05	-0.37	-1.00	-0.47	-18.41	-0.46
0	1	38	0.02	-0.39	-1.00	-0.47	0.15	-0.14
0	1	39	-0.02	-0.35	-1.00	0.35	-3.66	-1.83
0	1	40	-0.01	-0.32	-1.00	2.03	-3.79	-7.89
0	1	41	0.02	-0.25	-0.99	1.10	2.53	-2.46
0	1	42	0.02	-0.22	-1.00	-0.15	10.78	-0.08
0	1	43	0.01	-0.11	-1.00	0.22	17.03	-0.64
0	1	44	0.01	-0.03	-1.00	-0.65	15.59	3.54
0	1	45	0.02	-0.00	-1.01	-0.40	6.40	0.86
0	1	46	0.01	0.02	-1.00	0.28	-2.10	-2.02
0	1	47	0.01	0.02	-1.00	-0.03	0.46	-1.77
0	1	48	0.00	0.02	-1.00	-0.28	1.28	1.79
0	1	49	-0.01	-0.00	-1.00	-0.15	-0.79	1.48
0	2	0	-0.00	-0.00	-1.00	-0.09	-0.35	-0.08
0	2	1	-0.00	-0.00	-1.00	-0.09	-0.04	-0.08
0	2	2	0.00	-0.00	-1.00	-0.15	-0.10	0.04
0	2	3	0.00	-0.02	-1.00	-0.22	-0.97	-0.08
0	2	4	0.00	-0.04	-1.00	-0.22	-2.22	0.11
0	2	5	0.00	-0.06	-1.00	-0.15	-3.72	0.23
0	2	6	0.02	-0.11	-1.00	-0.15	-8.66	-0.14
0	2	7	0.02	-0.10	-1.01	0.97	-10.79	-3.33
0	2	8	0.00	-0.20	-1.00	3.03	-13.22	-8.39
0	2	9	0.04	-0.35	-0.99	1.41	-2.04	-4.14
0	2	10	0.03	-0.26	-1.01	1.60	2.21	-10.71
0	2	11	0.06	-0.28	-0.99	10.78	7.21	1.42
0	2	12	0.04	-0.25	-1.00	6.53	11.46	3.29
0	2	13	0.03	-0.26	-0.97	-3.97	14.09	3.42
0	2	14	0.03	-0.33	-0.98	-23.97	27.90	13.86
0	2	15	0.00	-0.27	-1.05	6.35	39.59	18.48
0	2	16	0.02	-0.15	-0.99	-1.65	54.65	-3.27
0	2	17	-0.02	0.02	-1.01	0.53	44.53	-1.71
0	2	18	-0.02	0.08	-1.00	-2.22	30.71	-6.89
0	2	19	0.04	-0.08	-1.00	-0.22	24.46	-0.58
0	2	20	0.06	-0.15	-1.00	-1.47	49.96	-0.02
0	2	21	0.03	0.10	-1.00	-0.15	49.46	1.73
0	2	22	0.06	0.41	-1.00	-1.09	37.34	0.04
0	2	23	0.01	0.46	-1.00	-0.34	20.34	-0.21
0	2	24	-0.02	0.22	-1.00	-0.84	7.53	-1.14
0	2	25	-0.06	0.17	-1.00	0.53	16.03	2.73
0	2	26	-0.02	0.38	-1.00	0.03	2.03	-0.77
0	2	27	0.01	0.54	-1.00	-0.40	12.96	-0.27
0	2	28	-0.04	0.56	-1.00	0.22	-3.47	-0.83
0	2	29	-0.03	0.43	-1.00	-0.28	-2.97	0.73
0	2	30	-0.05	0.39	-1.00	0.72	-2.41	3.61
0	2	31	-0.06	0.47	-1.00	-1.53	-30.85	-1.64
0	2	32	0.02	0.26	-1.00	-0.65	-24.16	-0.64
0	2	33	0.01	0.25	-1.00	-1.15	-33.97	-0.89
0	2	34	0.02	0.27	-1.00	1.47	-33.60	-0.27
0	2	35	0.05	0.15	-1.00	-0.47	-41.54	-0.58
0	2	36	0.04	0.09	-1.01	-1.28	-25.79	0.42
0	2	37	-0.01	0.07	-1.03	-15.97	-32.22	-2.64
0	2	38	0.00	0.07	-0.97	-19.47	-39.79	-0.96
0	2	39	0.05	-0.10	-0.97	4.28	-40.54	3.98
0	2	40	0.05	-0.19	-1.01	14.47	-26.10	0.04
0	2	41	0.03	-0.12	-1.00	8.91	-23.10	1.73
0	2	42	0.05	-0.13	-1.02	12.10	-24.22	-3.27
0	2	43	0.05	-0.18	-1.01	-2.34	-20.04	1.04
0	2	44	0.02	-0.21	-1.05	-23.84	-13.72	-1.02
0	2	45	-0.01	-0.24	-1.00	-37.59	-1.16	-9.89
0	2	46	0.03	-0.30	-0.92	-1.22	-5.60	-8.83
0	2	47	0.01	-0.21	-0.95	44.78	-11.47	9.42
0	2	48	-0.04	-0.12	-1.10	27.85	-7.10	9.42
0	2	49	0.01	-0.12	-0.99	-5.90	-0.22	-1.27
0	3	0	0.01	-0.02	-1.00	-0.22	0.40	0.04
0	3	1	0.00	-0.03	-1.00	0.03	0.46	0.23
0	3	2	0.01	-0.04	-1.00	-0.03	-1.79	-0.39
0	3	3	0.01	-0.05	-1.00	-0.15	-2.72	0.23
0	3	4	-0.00	-0.02	-1.00	0.03	-2.60	-0.02
0	3	5	0.00	-0.03	-1.00	-0.15	-2.79	0.04
0	3	6	0.01	-0.07	-1.00	-0.15	-2.85	-0.08
0	3	7	0.03	-0.22	-1.00	-0.28	-2.04	-0.27
0	3	8	0.05	-0.38	-1.00	0.10	-2.35	-0.08
0	3	9	0.03	-0.22	-1.00	1.22	7.78	-2.46
0	3	10	0.06	-0.24	-0.99	3.22	0.90	-7.27
0	3	11	0.07	-0.18	-1.02	9.66	4.40	1.29
0	3	12	0.04	-0.14	-1.01	27.85	4.78	10.04
0	3	13	0.01	-0.15	-1.03	16.35	13.21	11.11
0	3	14	-0.02	-0.17	-0.99	-21.97	28.78	0.86
0	3	15	0.04	-0.20	-0.84	-34.40	35.28	-7.52
0	3	16	0.06	-0.19	-0.96	-12.22	42.59	6.98
0	3	17	0.00	-0.12	-1.13	7.66	42.78	0.11
0	3	18	0.11	0.02	-0.96	-3.65	49.53	-5.58
0	3	19	-0.01	0.11	-1.04	4.72	36.84	-1.14
0	3	20	-0.01	0.14	-0.99	20.10	15.21	-7.77
0	3	21	-0.06	0.07	-0.95	-17.28	19.40	-19.77
0	3	22	-0.03	-0.10	-0.99	-15.97	16.15	23.92
0	3	23	-0.01	-0.02	-1.04	4.85	7.78	0.67
0	3	24	0.07	0.27	-0.98	-1.15	23.09	1.73
0	3	25	-0.05	0.40	-1.01	0.35	17.78	-0.52
0	3	26	-0.02	0.33	-1.00	-0.28	15.40	-2.39
0	3	27	-0.06	0.29	-1.00	1.03	1.59	1.29
0	3	28	-0.02	0.39	-1.00	0.03	-8.10	0.29
0	3	29	-0.06	0.47	-1.00	-0.09	2.71	0.29
0	3	30	-0.07	0.45	-1.00	1.35	0.28	5.92
0	3	31	-0.06	0.41	-1.00	0.78	6.28	3.04
0	3	32	-0.10	0.41	-1.01	-2.40	-13.16	-5.52
0	3	33	0.05	0.41	-0.99	-2.22	-34.72	-4.08
0	3	34	0.01	0.30	-1.00	0.03	-9.91	1.54
0	3	35	0.02	0.27	-1.00	-2.28	-27.41	-0.77
0	3	36	0.00	0.21	-1.00	0.53	-33.16	2.36
0	3	37	0.01	0.16	-1.00	-0.22	-46.97	-0.33
0	3	38	0.06	0.03	-1.00	-1.40	-39.22	0.73
0	3	39	0.05	-0.12	-1.00	-1.09	-41.66	1.29
0	3	40	0.05	-0.19	-1.00	0.22	-41.10	0.73
0	3	41	0.02	-0.12	-1.00	-0.28	-31.85	1.04
0	3	42	0.05	-0.17	-1.00	-0.59	-22.91	1.48
0	3	43	0.04	-0.23	-1.02	-6.40	-17.85	1.11
0	3	44	0.05	-0.25	-1.01	-18.47	-1.97	-1.27
0	3	45	0.00	-0.20	-0.99	-11.90	0.03	0.61
0	3	46	0.01	-0.19	-0.98	0.22	-1.22	-0.77
0	3	47	0.01	-0.13	-0.98	21.91	-8.22	0.54
0	3	48	0.02	-0.15	-1.05	13.66	-12.79	0.98
0	3	49	0.03	-0.17	-1.00	-3.28	-6.54	0.54
0	4	0	0.00	-0.04	-1.00	-0.15	-7.22	-0.08
0	4	1	-0.00	0.01	-1.00	-0.09	-9.97	0.17
0	4	2	-0.00	-0.03	-1.00	-0.28	-7.35	-0.08
0	4	3	0.00	-0.06	-1.00	-0.15	-4.91	0.04
0	4	4	-0.00	-0.06	-1.00	-0.22	-6.54	0.11
0	4	5	0.02	-0.05	-1.00	-0.09	-8.16	0.23
0	4	6	0.01	-0.09	-1.00	-0.59	-10.72	1.29
0	4	7	-0.01	-0.26	-1.00	0.22	-16.41	0.98
0	4	8	0.03	-0.40	-1.00	-0.53	-4.22	0.54
0	4	9	0.08	-0.28	-1.00	-0.65	-0.60	-1.21
0	4	10	0.05	-0.19	-1.00	1.22	8.15	4.23
0	4	11	0.06	-0.18	-1.00	1.53	-0.47	9.11
0	4	12	0.01	-0.13	-1.00	-2.09	-0.72	3.42
0	4	13	-0.01	-0.19	-0.99	0.47	11.15	-1.46
0	4	14	-0.01	-0.20	-1.00	0.97	33.78	-2.83
0	4	15	0.08	-0.10	-1.00	-0.15	43.71	-0.52
0	4	16	0.08	0.04	-1.00	-1.03	34.84	-1.89
0	4	17	0.01	0.14	-1.00	-1.90	-0.60	-10.33
0	4	18	-0.05	0.13	-1.00	-0.40	-13.47	-1.27
0	4	19	-0.07	0.01	-1.00	-0.84	-5.85	1.17
0	4	20	-0.03	-0.02	-1.00	0.47	20.09	-0.83
0	4	21	-0.01	0.12	-1.00	0.72	39.84	-0.08
0	4	22	-0.01	0.32	-1.00	-1.28	15.53	-0.89
0	4	23	0.00	0.43	-1.00	0.60	4.34	1.36
0	4	24	-0.06	0.32	-1.00	0.35	11.28	0.17
0	4	25	-0.03	0.23	-1.00	-0.34	8.90	-0.77
0	4	26	-0.04	0.28	-1.00	-0.40	12.84	1.17
0	4	27	-0.06	0.37	-1.00	-0.72	9.53	0.11
0	4	28	-0.06	0.36	-0.99	-2.15	-5.97	-0.27
0	4	29	-0.02	0.34	-1.00	1.16	-5.04	0.79
0	4	30	-0.02	0.25	-1.00	0.60	-5.91	-0.46
0	4	31	0.03	0.17	-1.00	0.91	-15.79	-1.33
0	4	32	0.04	0.15	-1.00	-0.22	-22.22	-0.64
0	4	33	0.03	0.14	-1.00	0.66	-26.91	-0.02
0	4	34	-0.01	0.20	-1.00	-2.15	-30.41	1.04
0	4	35	-0.00	0.16	-1.00	0.91	-39.54	0.79
0	4	36	0.01	0.08	-1.00	0.28	-40.22	-0.71
0	4	37	0.02	-0.01	-1.00	0.28	-35.35	1.04
0	4	38	0.02	-0.07	-1.00	-0.03	-28.91	-0.83
0	4	39	0.04	-0.10	-1.00	0.22	-20.29	2.17
0	4	40	0.05	-0.13	-1.00	0.91	-21.60	-0.14
0	4	41	0.05	-0.12	-1.00	-1.15	-19.29	-0.02
0	4	42	0.01	-0.12	-1.00	-2.97	-12.72	-0.64
0	4	43	0.02	-0.16	-0.99	0.78	-17.29	-0.02
0	4	44	0.03	-0.19	-1.01	1.97	-15.79	0.92
0	4	45	0.02	-0.17	-1.00	0.03	-8.41	-0.64
0	4	46	-0.01	-0.14	-1.00	1.78	-8.79	-0.77
0	4	47	0.02	-0.15	-1.00	-0.40	-8.10	0.48
0	4	48	0.02	-0.17	-1.00	-0.34	0.34	-0.08
0	4	49	0.01	-0.15	-1.00	-0.09	-2.22	0.86
0	5	0	-0.00	-0.00	-1.00	-0.15	-1.41	-0.02
0	5	1	0.00	-0.01	-1.00	-0.03	-1.72	-0.02
0	5	2	0.00	-0.00	-1.00	-0.15	-2.10	-0.08
0	5	3	0.00	-0.01	-1.00	-0.03	-3.10	-0.14
0	5	4	0.01	-0.06	-1.00	-0.28	-8.79	-0.14
0	5	5	0.02	-0.12	-1.00	-0.28	-9.47	-0.14
0	5	6	0.02	-0.10	-1.00	-0.09	-5.91	-0.39
0	5	7	0.02	-0.21	-1.00	-0.65	-1.85	-0.52
0	5	8	0.08	-0.39	-1.00	-0.59	-1.22	0.61
0	5	9	0.08	-0.24	-1.00	0.47	7.15	0.92
0	5	10	0.06	-0.18	-1.00	0.85	7.65	0.11
0	5	11	0.07	-0.14	-1.00	0.22	-2.79	1.86
0	5	12	0.02	-0.11	-1.00	0.22	-0.35	7.04
0	5	13	-0.01	-0.12	-1.00	-0.65	11.40	-2.83
0	5	14	0.01	-0.14	-1.00	-0.84	31.53	-6.89
0	5	15	0.02	-0.08	-0.99	-1.03	39.46	0.48
0	5	16	0.00	0.03	-1.00	0.16	35.09	0.79
0	5	17	-0.03	0.09	-1.00	-0.09	22.28	0.48
0	5	18	-0.03	-0.04	-1.00	0.22	19.78	-2.64
0	5	19	-0.00	-0.13	-1.00	-0.34	28.28	1.92
0	5	20	0.04	-0.01	-1.00	0.16	43.53	0.73
0	5	21	0.02	0.13	-1.00	0.35	39.71	-0.33
0	5	22	-0.04	0.24	-1.00	-0.65	28.09	0.23
0	5	23	-0.06	0.18	-1.00	-0.40	17.59	-1.58
0	5	24	-0.06	0.12	-1.00	0.85	21.59	1.36
0	5	25	-0.01	0.16	-1.00	0.03	28.03	-0.52
0	5	26	0.03	0.23	-1.00	0.10	31.59	-1.02
0	5	27	-0.01	0.38	-1.00	0.03	27.03	-1.52
0	5	28	-0.03	0.42	-1.00	-1.03	2.78	0.36
0	5	29	0.00	0.26	-1.01	-5.28	-2.29	-0.02
0	5	30	-0.01	0.24	-0.99	-3.09	4.59	0.42
0	5	31	-0.03	0.26	-1.00	-3.34	3.96	1.11
0	5	32	-0.00	0.37	-0.99	-1.53	-16.10	0.79
0	5	33	0.04	0.29	-1.00	-0.09	-19.41	1.17
0	5	34	0.05	0.20	-1.00	0.91	-23.97	-1.39
0	5	35	0.01	0.21	-1.00	0.28	-21.91	0.17
0	5	36	-0.03	0.21	-1.00	-0.15	-30.35	1.67
0	5	37	0.00	0.12	-1.00	-0.72	-38.29	-0.52
0	5	38	0.00	-0.00	-1.00	-1.15	-41.72	0.48
0	5	39	0.00	-0.06	-1.00	1.66	-44.41	-1.39
0	5	40	-0.01	-0.02	-1.00	2.10	-47.66	3.36
0	5	41	0.02	-0.05	-1.01	1.41	-39.60	-0.46
0	5	42	0.03	-0.09	-1.00	-0.72	-22.10	0.17
0	5	43	0.02	-0.13	-1.00	-0.78	-13.35	-1.64
0	5	44	0.01	-0.16	-1.00	-3.22	-16.16	0.86
0	5	45	-0.02	-0.14	-1.01	-2.22	-8.85	-3.08
0	5	46	0.01	-0.13	-0.97	1.85	-10.60	1.54
0	5	47	0.00	-0.11	-1.02	5.72	-18.97	3.36
0	5	48	0.03	-0.09	-1.00	-1.03	-12.97	0.04
0	5	49	0.00	-0.06	-1.00	0.66	-16.47	0.11
0	6	0	-0.00	-0.00	-1.00	-0.15	-0.04	-0.14
0	6	1	0.00	-0.01	-1.00	-0.09	0.09	-0.08
0	6	2	0.00	-0.01	-1.00	-0.03	-0.04	0.04
0	6	3	-0.00	0.01	-1.00	-0.22	-0.60	0.04
0	6	4	0.00	-0.01	-1.00	-0.15	-1.85	0.11
0	6	5	0.01	-0.01	-1.00	-0.15	-5.22	0.11
0	6	6	0.02	-0.06	-1.00	-0.15	-13.97	0.23
0	6	7	0.03	-0.13	-1.00	-0.22	-11.72	0.42
0	6	8	0.04	-0.13	-1.00	0.10	-9.54	-0.39
0	6	9	0.01	-0.10	-1.00	-0.09	-11.72	0.36
0	6	10	0.01	-0.28	-1.00	-0.40	-19.97	-0.52
0	6	11	0.10	-0.43	-1.00	-0.97	2.03	-0.21
0	6	12	0.07	-0.15	-1.00	-0.34	7.40	1.67
0	6	13	0.06	-0.16	-1.00	0.47	6.03	0.42
0	6	14	0.06	-0.13	-1.00	2.22	-3.47	9.36
0	6	15	-0.01	-0.13	-1.01	-2.22	7.15	3.73
0	6	16	-0.01	-0.18	-0.99	-3.53	23.59	-7.77
0	6	17	0.03	-0.19	-1.00	2.91	38.03	-9.39
0	6	18	0.06	-0.11	-1.00	-0.90	54.09	0.67
0	6	19	0.04	0.01	-1.00	0.22	54.84	1.04
0	6	20	0.01	0.11	-1.00	2.28	46.15	4.67
0	6	21	-0.00	0.11	-1.00	0.35	39.90	4.61
0	6	22	-0.01	0.06	-1.00	-1.03	39.09	-3.27
0	6	23	-0.02	0.11	-1.00	-0.47	40.71	-4.21
0	6	24	-0.02	0.16	-1.00	-0.84	33.03	-2.83
0	6	25	0.01	0.20	-1.00	0.66	23.28	-0.08
0	6	26	-0.01	0.26	-1.00	-0.22	27.78	0.42
0	6	27	-0.04	0.33	-1.00	0.91	25.96	3.17
0	6	28	-0.07	0.36	-1.00	0.85	16.96	2.98
0	6	29	-0.05	0.32	-1.00	-0.72	10.53	-2.58
0	6	30	-0.01	0.28	-1.01	-1.15	7.34	0.29
0	6	31	-0.04	0.20	-1.00	-5.78	2.46	-0.27
0	6	32	-0.03	0.33	-1.00	-0.40	-5.16	0.61
0	6	33	-0.04	0.35	-1.00	-0.65	-12.41	-4.46
0	6	34	0.00	0.18	-1.00	0.72	-21.91	2.23
0	6	35	0.01	0.22	-1.00	0.91	-24.54	-0.64
0	6	36	-0.02	0.24	-1.00	-0.47	-33.35	-0.08
0	6	37	-0.03	0.14	-1.00	-0.78	-39.16	-0.46
0	6	38	0.01	0.02	-1.00	0.85	-40.29	-0.58
0	6	39	0.01	-0.04	-1.00	2.10	-41.47	0.42
0	6	40	0.03	-0.05	-1.00	1.47	-40.04	-0.89
0	6	41	0.03	-0.06	-1.00	0.03	-35.10	-1.71
0	6	42	0.03	-0.04	-1.00	-0.03	-28.35	-0.14
0	6	43	-0.00	-0.05	-1.00	-3.53	-17.04	2.11
0	6	44	0.01	-0.01	-1.00	0.03	-22.54	-1.27
0	6	45	0.03	-0.05	-1.00	2.28	-22.97	0.04
0	6	46	0.03	-0.10	-1.00	-1.53	-22.10	-0.83
0	6	47	0.01	-0.05	-1.00	-1.34	-18.10	-2.08
0	6	48	-0.01	-0.02	-0.99	0.47	-18.85	-0.02
0	6	49	0.04	-0.12	-1.00	1.35	-21.22	2.86
0	7	0	-0.00	-0.00	-1.00	-0.15	1.40	-0.02
0	7	1	-0.00	0.00	-1.00	-0.09	0.40	-0.14
0	7	2	-0.00	-0.00	-1.00	-0.09	-0.04	-0.02
0	7	3	-0.00	-0.01	-1.00	-0.15	-0.04	-0.08
0	7	4	-0.00	-0.01	-1.00	0.10	-1.29	-0.77
0	7	5	-0.00	-0.00	-1.00	0.22	-1.22	-1.08
0	7	6	0.00	-0.03	-1.00	0.22	-4.54	-1.21
0	7	7	0.01	-0.05	-1.00	-0.40	-1.41	0.54
0	7	8	0.00	-0.04	-1.00	0.10	-1.16	0.79
0	7	9	0.01	-0.04	-1.00	-0.15	-0.54	0.73
0	7	10	0.00	-0.06	-1.00	0.10	-3.10	-0.39
0	7	11	0.01	-0.06	-1.00	0.03	-4.29	-0.83
0	7	12	0.02	-0.16	-0.99	-0.34	-3.60	1.11
0	7	13	0.06	-0.41	-1.01	-1.40	3.09	3.04
0	7	14	0.09	-0.29	-1.00	-0.84	6.84	-1.14
0	7	15	0.06	-0.19	-1.00	-0.53	13.40	1.36
0	7	16	0.07	-0.21	-1.00	-0.15	5.21	-0.02
0	7	17	0.06	-0.17	-1.00	-3.28	7.40	-1.58
0	7	18	0.03	-0.22	-1.00	-3.72	24.03	2.23
0	7	19	0.02	-0.16	-1.00	3.22	47.90	-1.83
0	7	20	0.05	-0.10	-1.00	3.03	57.15	0.17
0	7	21	0.02	0.02	-1.01	0.41	57.21	0.29
0	7	22	0.03	0.08	-1.00	0.85	45.09	-0.27
0	7	23	0.01	0.04	-1.00	0.03	41.34	-1.08
0	7	24	-0.01	-0.04	-1.00	-0.59	46.09	2.17
0	7	25	-0.03	0.06	-1.00	-0.28	48.90	-0.21
0	7	26	-0.00	0.17	-1.00	0.41	39.84	1.42
0	7	27	0.00	0.20	-1.00	0.16	32.53	-0.64
0	7	28	-0.02	0.18	-1.00	0.41	24.71	-0.27
0	7	29	-0.04	0.22	-1.00	-0.34	27.09	-0.27
0	7	30	-0.05	0.28	-1.00	0.91	23.90	-0.64
0	7	31	-0.03	0.25	-1.00	0.47	21.21	-1.21
0	7	32	-0.02	0.24	-1.00	0.41	18.59	-0.14
0	7	33	-0.03	0.33	-1.00	0.35	1.28	-0.02
0	7	34	0.00	0.27	-1.01	-2.03	2.71	0.04
0	7	35	-0.05	0.18	-0.99	-5.90	-4.16	0.11
0	7	36	-0.01	0.25	-1.00	-0.15	-3.79	-0.39
0	7	37	-0.03	0.29	-1.00	1.22	-20.85	-0.33
0	7	38	0.02	0.20	-1.00	1.78	-19.04	1.29
0	7	39	0.02	0.18	-1.00	-0.47	-21.04	0.61
0	7	40	-0.00	0.23	-1.00	-0.97	-16.72	0.98
0	7	41	-0.03	0.22	-1.00	0.72	-24.66	-0.39
0	7	42	-0.01	0.18	-1.00	-0.34	-36.97	1.04
0	7	43	0.01	0.09	-1.00	1.03	-45.29	-0.14
0	7	44	0.03	-0.01	-1.00	-1.09	-44.04	0.29
0	7	45	-0.01	-0.03	-1.00	1.72	-39.29	-0.46
0	7	46	0.02	-0.01	-1.00	0.60	-51.04	-1.58
0	7	47	0.02	-0.03	-1.00	-0.28	-46.97	0.98
0	7	48	0.05	-0.09	-1.00	-1.15	-41.29	0.79
0	7	49	0.02	-0.11	-1.00	-1.03	-26.10	0.29
0	8	0	-0.00	-0.00	-1.00	0.03	0.03	-0.14
0	8	1	-0.01	-0.01	-1.00	-0.15	0.84	-0.02
0	8	2	0.00	-0.01	-1.00	-0.09	1.09	-0.02
0	8	3	0.01	-0.02	-1.00	-0.09	-2.79	0.36
0	8	4	0.01	-0.06	-1.00	-0.15	-10.97	-0.27
0	8	5	0.03	-0.15	-1.00	-0.09	-14.35	-0.21
0	8	6	0.01	-0.16	-1.00	-0.15	-5.66	0.48
0	8	7	0.01	-0.19	-1.00	0.16	-10.16	0.23
0	8	8	0.04	-0.21	-1.00	-0.22	-6.60	1.29
0	8	9	0.00	-0.29	-1.00	0.22	11.59	-0.83
0	8	10	0.14	-0.37	-1.00	-0.53	10.53	-1.64
0	8	11	0.05	-0.08	-1.00	-0.78	30.21	2.79
0	8	12	0.09	-0.13	-1.01	0.60	21.34	-0.33
0	8	13	0.07	-0.08	-1.00	-0.28	29.96	-1.83
0	8	14	0.02	-0.06	-1.00	0.10	32.65	4.54
0	8	15	0.01	-0.01	-1.00	-2.47	34.71	4.36
0	8	16	-0.01	0.01	-1.00	-0.34	36.53	0.04
0	8	17	-0.02	0.01	-1.00	1.16	35.78	-2.58
0	8	18	0.04	-0.08	-1.00	1.41	33.84	-3.77
0	8	19	0.05	0.01	-1.01	-1.53	46.28	3.42
0	8	20	-0.02	0.12	-1.00	-1.09	41.40	7.73
0	8	21	-0.06	0.11	-1.00	-1.34	24.59	-3.27
0	8	22	-0.06	0.01	-1.00	1.10	12.28	-9.58
0	8	23	-0.01	-0.05	-1.00	1.66	25.21	-1.02
0	8	24	0.03	0.03	-1.01	0.16	38.21	-0.89
0	8	25	0.03	0.15	-0.99	0.66	46.28	-1.83
0	8	26	-0.02	0.23	-1.00	0.91	31.03	2.73
0	8	27	-0.02	0.25	-1.00	0.35	2.96	-1.58
0	8	28	0.00	0.22	-1.00	0.47	4.84	-1.08
0	8	29	-0.04	0.26	-1.00	-0.03	12.28	0.92
0	8	30	-0.06	0.36	-1.00	0.47	7.84	-0.27
0	8	31	-0.04	0.33	-1.01	-0.72	4.21	0.04
0	8	32	-0.03	0.20	-1.00	-2.84	-5.35	0.36
0	8	33	-0.02	0.34	-1.00	-0.34	-0.47	-0.21
0	8	34	-0.04	0.34	-1.00	0.91	1.03	-0.58
0	8	35	-0.03	0.23	-1.00	1.03	-11.54	1.48
0	8	36	-0.01	0.19	-1.00	0.03	-41.66	0.23
0	8	37	0.05	0.15	-1.00	-0.78	-31.29	-2.39
0	8	38	-0.01	0.14	-1.00	-1.40	-31.54	2.42
0	8	39	-0.01	0.16	-1.00	-0.97	-32.10	1.48
0	8	40	-0.00	0.11	-1.00	0.16	-45.35	-1.02
0	8	41	0.03	0.02	-1.00	0.10	-50.29	1.36
0	8	42	0.02	-0.05	-1.01	0.72	-46.54	-2.46
0	8	43	-0.00	-0.03	-0.99	0.41	-41.66	-2.96
0	8	44	-0.01	-0.07	-1.00	-0.65	-41.16	3.23
0	8	45	0.06	-0.07	-1.00	0.53	-45.41	-0.64
0	8	46	0.04	-0.06	-1.00	-0.65	-31.54	1.79
0	8	47	0.02	-0.08	-1.00	-0.28	-24.35	-1.71
0	8	48	-0.00	-0.11	-1.00	-1.09	-20.16	0.23
0	8	49	0.03	-0.18	-0.99	0.91	-21.10	-0.77
0	9	0	-0.00	-0.00	-1.00	-0.22	0.03	-0.08
0	9	1	-0.00	-0.00	-1.00	-0.03	-0.10	-0.08
0	9	2	-0.00	-0.01	-1.00	-0.09	-0.10	-0.02
0	9	3	0.01	-0.04	-1.00	0.16	-7.60	-0.71
0	9	4	0.01	-0.11	-1.00	0.66	-19.72	-3.02
0	9	5	0.04	-0.18	-1.00	-0.09	-19.22	0.36
0	9	6	0.04	-0.14	-1.00	0.41	-9.85	-1.08
0	9	7	0.04	-0.23	-1.00	0.41	-11.91	-1.96
0	9	8	0.02	-0.35	-0.99	-0.47	-9.97	0.17
0	9	9	0.08	-0.60	-1.00	-2.59	2.09	5.61
0	9	10	0.17	-0.34	-1.00	0.60	25.53	0.54
0	9	11	0.05	-0.18	-1.00	0.10	47.71	-2.58
0	9	12	0.10	-0.11	-0.99	0.16	47.78	1.67
0	9	13	0.03	0.01	-1.00	-0.47	56.96	0.11
0	9	14	0.01	-0.04	-1.00	1.41	53.53	-3.02
0	9	15	0.04	-0.05	-1.00	-0.22	65.46	1.61
0	9	16	0.01	0.15	-1.00	0.66	67.90	0.61
0	9	17	-0.03	0.23	-1.00	0.35	55.21	0.61
0	9	18	-0.04	0.23	-1.00	-0.72	39.46	-1.58
0	9	19	-0.04	0.26	-1.00	0.60	33.03	0.29
0	9	20	-0.04	0.35	-1.00	0.22	24.96	-0.89
0	9	21	-0.05	0.45	-1.00	0.10	17.53	-0.77
0	9	22	-0.06	0.44	-1.00	0.28	4.65	-0.71
0	9	23	-0.04	0.34	-1.00	-0.15	0.96	-0.39
0	9	24	-0.03	0.20	-1.00	-5.40	1.15	0.42
0	9	25	-0.08	0.33	-0.99	0.22	-8.29	3.17
0	9	26	-0.07	0.44	-1.00	-0.72	-13.91	-2.14
0	9	27	-0.03	0.29	-1.00	1.35	-29.79	1.73
0	9	28	0.03	0.11	-1.00	1.47	-32.16	-0.21
0	9	29	0.02	0.09	-1.00	0.60	-30.66	-0.89
0	9	30	-0.01	0.10	-1.00	-0.40	-33.16	-1.39
0	9	31	0.01	0.06	-1.00	1.91	-33.41	-2.33
0	9	32	0.01	-0.05	-1.00	-0.34	-42.16	-2.71
0	9	33	0.02	-0.08	-1.00	1.53	-40.22	-3.33
0	9	34	0.01	-0.04	-1.00	1.47	-34.72	-0.83
0	9	35	0.02	-0.01	-0.99	-2.09	-26.10	4.92
0	9	36	0.02	-0.03	-1.01	-1.47	-21.10	3.29
0	9	37	0.03	-0.08	-1.01	-1.09	-22.91	-0.83
0	9	38	0.01	-0.05	-1.00	-1.72	-19.66	-4.58
0	9	39	-0.01	-0.02	-1.00	-1.03	-23.04	-3.96
0	9	40	-0.01	-0.01	-0.99	-0.28	-22.29	0.61
0	9	41	0.01	-0.02	-1.00	1.91	-22.47	3.04
0	9	42	0.01	0.00	-1.01	1.66	-23.72	2.73
0	9	43	0.01	-0.03	-1.00	-0.09	-25.72	-1.52
0	9	44	0.01	-0.12	-1.00	0.35	-24.54	-0.39
0	9	45	0.02	-0.16	-1.00	-0.15	-19.60	2.04
0	9	46	0.02	-0.14	-1.00	-0.09	-14.35	0.48
0	9	47	0.01	-0.13	-1.00	0.10	-11.97	0.73
0	9	48	0.00	-0.14	-1.00	-1.28	-10.97	1.17
0	9	49	0.01	-0.14	-1.00	-0.59	-7.41	1.48
0	10	0	-0.00	-0.00	-1.00	-0.15	-0.04	-0.14
0	10	1	-0.00	-0.00	-1.00	-0.09	-0.10	-0.08
0	10	2	0.01	-0.04	-1.00	-0.03	-3.29	-0.52
0	10	3	0.02	-0.09	-1.00	0.85	-13.04	-3.39
0	10	4	0.05	-0.22	-1.00	-0.15	-7.22	-0.21
0	10	5	0.02	-0.15	-1.00	0.47	5.84	-0.89
0	10	6	-0.00	-0.08	-1.00	0.41	7.40	-0.71
0	10	7	-0.01	-0.22	-1.00	-1.15	2.90	2.11
0	10	8	0.04	-0.42	-1.00	-2.34	13.65	6.36
0	10	9	0.11	-0.37	-1.00	0.47	18.65	-1.89
0	10	10	0.05	-0.20	-1.00	-0.34	29.46	-0.14
0	10	11	0.03	-0.10	-1.01	3.35	21.84	-7.58
0	10	12	0.07	-0.16	-1.01	1.28	39.53	-4.83
0	10	13	0.09	-0.29	-0.92	-14.65	58.46	0.79
0	10	14	0.05	-0.17	-1.05	13.78	57.90	14.36
0	10	15	0.03	0.07	-1.01	-2.84	63.21	-2.08
0	10	16	-0.00	0.02	-1.00	1.28	51.34	0.23
0	10	17	0.03	-0.02	-1.00	1.16	51.65	-3.52
0	10	18	0.03	-0.00	-1.00	-0.03	58.71	-0.46
0	10	19	0.02	0.15	-1.00	0.41	54.53	0.67
0	10	20	-0.03	0.32	-1.00	-0.97	41.03	0.98
0	10	21	-0.00	0.37	-1.00	1.47	30.09	-2.21
0	10	22	-0.00	0.30	-1.00	0.78	26.65	1.61
0	10	23	-0.05	0.37	-1.00	-1.90	14.59	4.04
0	10	24	-0.08	0.44	-1.01	-0.78	15.03	-0.46
0	10	25	-0.08	0.44	-1.00	-0.47	-2.29	-0.46
0	10	26	-0.00	0.27	-1.01	-3.59	1.03	1.11
0	10	27	-0.04	0.31	-0.99	-2.28	-2.04	4.86
0	10	28	-0.03	0.33	-1.00	-1.34	-5.72	6.48
0	10	29	-0.04	0.38	-0.99	-1.28	-13.97	-4.77
0	10	30	-0.03	0.25	-1.01	1.78	-46.85	-8.58
0	10	31	0.06	0.15	-0.99	-2.22	-25.79	1.54
0	10	32	-0.04	0.22	-1.01	-3.09	-35.35	-5.02
0	10	33	-0.01	0.22	-1.00	-4.28	-35.91	-0.33
0	10	34	-0.05	0.16	-1.01	-15.97	-43.35	-4.89
0	10	35	0.01	0.08	-0.96	-5.34	-53.29	-9.33
0	10	36	0.01	-0.03	-1.01	11.85	-54.72	-8.46
0	10	37	-0.03	0.02	-1.00	1.03	-42.97	-4.77
0	10	38	-0.03	0.05	-0.96	13.97	-60.54	-3.96
0	10	39	0.05	-0.18	-1.02	12.60	-59.97	15.23
0	10	40	0.07	-0.20	-1.02	-5.22	-16.72	7.29
0	10	41	-0.00	-0.11	-1.00	-3.28	-19.91	0.29
0	10	42	-0.00	-0.15	-0.98	2.16	-20.97	-6.71
0	10	43	0.04	-0.21	-1.00	4.16	-24.47	2.79
0	10	44	0.09	-0.25	-0.99	-2.40	-14.29	5.61
0	10	45	0.05	-0.20	-1.01	-0.97	-5.79	8.73
0	10	46	0.02	-0.15	-0.99	-1.40	-1.72	7.11
0	10	47	0.05	-0.20	-1.01	-2.97	-6.72	7.42
0	10	48	0.06	-0.20	-1.00	0.16	-0.54	-1.64
0	10	49	0.03	-0.20	-1.00	0.66	13.40	-2.46
0	11	0	-0.00	0.02	-1.00	-0.15	-3.29	0.36
0	11	1	0.00	0.01	-1.00	-0.09	-1.04	0.04
0	11	2	-0.00	-0.02	-1.00	-0.03	-1.41	-0.02
0	11	3	0.01	-0.04	-1.00	-0.15	-5.85	-0.08
0	11	4	0.03	-0.18	-1.00	0.03	-11.10	-0.21
0	11	5	0.05	-0.17	-1.00	0.10	-10.41	-0.33
0	11	6	0.04	-0.14	-1.01	-1.53	-4.91	0.42
0	11	7	0.03	-0.21	-1.00	-5.90	-10.66	-0.77
0	11	8	0.04	-0.29	-1.00	-3.40	-11.72	-0.64
0	11	9	0.02	-0.35	-0.98	0.91	19.03	0.36
0	11	10	0.16	-0.37	-1.03	-1.22	19.90	2.42
0	11	11	0.02	-0.15	-0.98	-4.47	29.34	-0.39
0	11	12	0.05	-0.21	-1.00	2.41	35.03	3.42
0	11	13	0.01	-0.15	-1.00	-2.78	42.53	-6.83
0	11	14	0.01	-0.11	-1.00	7.60	47.90	-0.58
0	11	15	0.01	0.01	-1.00	4.47	62.65	-0.21
0	11	16	0.04	0.15	-1.00	2.78	62.59	-0.33
0	11	17	0.04	0.20	-1.00	-0.40	56.21	-0.27
0	11	18	-0.01	0.23	-1.00	-4.47	47.96	-0.77
0	11	19	-0.05	0.30	-0.99	-3.28	37.09	0.42
0	11	20	-0.09	0.23	-1.00	1.16	19.09	0.54
0	11	21	-0.02	0.09	-1.00	2.53	19.71	-2.27
0	11	22	-0.00	0.20	-1.00	-0.47	23.34	-0.58
0	11	23	-0.00	0.35	-1.00	-1.09	15.40	0.36
0	11	24	-0.05	0.46	-1.00	-0.40	9.96	0.36
0	11	25	-0.03	0.39	-1.01	-1.78	2.96	-0.08
0	11	26	-0.06	0.29	-0.99	-3.47	-9.10	0.17
0	11	27	-0.03	0.31	-1.00	0.03	-12.41	-0.33
0	11	28	-0.01	0.37	-0.99	1.10	-8.85	-0.02
0	11	29	0.01	0.26	-1.00	1.91	-15.66	0.36
0	11	30	0.02	0.24	-1.00	1.85	-25.79	0.92
0	11	31	0.02	0.21	-1.00	0.03	-30.60	-0.71
0	11	32	0.01	0.23	-1.00	-2.90	-33.41	-0.08
0	11	33	-0.00	0.19	-1.00	-3.90	-43.47	0.98
0	11	34	0.02	0.07	-1.00	-7.28	-49.72	0.54
0	11	35	-0.02	0.00	-1.00	-7.78	-54.54	-2.14
0	11	36	0.01	-0.11	-0.96	7.22	-69.79	-0.77
0	11	37	0.04	-0.19	-1.03	18.97	-76.35	5.92
0	11	38	0.08	-0.18	-1.00	-3.09	-33.60	-0.58
0	11	39	0.01	-0.12	-1.00	1.78	-27.47	1.92
0	11	40	0.06	-0.23	-1.00	-0.72	-13.47	-4.02
0	11	41	-0.00	-0.13	-1.00	1.41	-18.79	2.92
0	11	42	0.04	-0.17	-1.00	2.78	-12.22	-1.52
0	11	43	0.00	-0.18	-1.00	2.66	-3.10	-0.96
0	11	44	0.03	-0.20	-1.00	0.60	-7.04	-0.39
0	11	45	0.03	-0.21	-1.00	0.03	-6.29	0.79
0	11	46	0.04	-0.21	-1.00	-0.15	-5.79	0.36
0	11	47	0.04	-0.20	-1.00	-0.22	-0.22	0.36
0	11	48	0.02	-0.09	-1.00	0.03	8.71	0.11
0	11	49	-0.02	-0.01	-1.00	0.03	15.84	-0.14
0	12	0	0.00	-0.01	-1.00	-0.15	-0.35	-0.08
0	12	1	-0.00	-0.01	-1.00	0.16	-0.60	-0.14
0	12	2	-0.00	0.00	-1.00	0.10	-0.29	-0.02
0	12	3	0.00	-0.02	-1.00	-0.15	-0.60	0.04
0	12	4	0.02	-0.12	-1.00	-0.22	-13.72	-0.39
0	12	5	0.03	-0.13	-1.00	0.28	-18.54	-1.33
0	12	6	0.03	-0.15	-1.00	-0.03	-6.29	-1.14
0	12	7	0.03	-0.08	-1.01	-1.84	-5.85	-0.58
0	12	8	0.05	-0.26	-1.00	-11.09	-12.97	-1.39
0	12	9	0.02	-0.33	-1.00	-11.34	-8.22	2.54
0	12	10	0.11	-0.63	-0.98	9.85	0.65	4.98
0	12	11	0.19	-0.22	-1.02	-9.78	28.59	-4.21
0	12	12	0.00	-0.07	-0.97	0.35	42.84	2.36
0	12	13	0.05	-0.13	-1.01	1.78	40.78	-1.33
0	12	14	0.03	-0.07	-0.99	3.35	45.15	-0.64
0	12	15	0.08	-0.03	-0.99	4.28	53.21	-0.58
0	12	16	0.06	0.08	-1.01	1.85	67.28	0.36
0	12	17	-0.01	0.15	-1.00	-2.59	63.28	0.48
0	12	18	-0.08	0.23	-1.00	-2.28	54.28	-1.14
0	12	19	-0.11	0.32	-0.99	1.78	37.90	-0.83
0	12	20	-0.10	0.30	-1.01	3.28	27.40	-4.02
0	12	21	-0.00	0.18	-0.99	2.03	22.65	-6.83
0	12	22	-0.02	0.22	-1.00	-0.03	23.59	3.86
0	12	23	-0.05	0.27	-1.01	-4.53	19.03	2.17
0	12	24	-0.07	0.35	-1.01	-4.15	11.59	-1.33
0	12	25	-0.04	0.33	-1.00	-7.72	4.71	-1.14
0	12	26	-0.00	0.12	-1.00	-12.90	4.34	2.23
0	12	27	-0.02	0.20	-0.95	1.66	-7.22	4.11
0	12	28	-0.03	0.24	-1.03	17.78	-10.41	-1.08
0	12	29	0.02	0.19	-0.99	-2.28	-9.54	0.73
0	12	30	-0.01	0.29	-1.01	1.60	-10.16	0.23
0	12	31	-0.01	0.30	-1.00	-0.47	-15.79	1.73
0	12	32	-0.01	0.16	-1.00	0.35	-23.04	0.23
0	12	33	0.01	0.15	-1.00	1.78	-32.66	-1.02
0	12	34	0.01	0.12	-1.00	0.72	-35.60	1.11
0	12	35	0.00	0.09	-1.00	1.53	-39.29	0.54
0	12	36	0.04	0.00	-1.00	1.03	-45.72	0.23
0	12	37	0.02	-0.02	-1.00	-0.78	-40.22	0.48
0	12	38	0.02	-0.03	-1.00	1.10	-44.97	-0.71
0	12	39	0.00	-0.05	-0.99	0.41	-43.79	2.98
0	12	40	0.02	-0.07	-1.01	0.97	-36.47	1.04
0	12	41	0.05	-0.09	-1.00	-1.03	-26.16	-0.71
0	12	42	0.01	-0.04	-1.00	1.10	-19.04	-0.33
0	12	43	-0.00	-0.07	-1.00	0.16	-18.22	-1.52
0	12	44	0.04	-0.15	-1.00	0.91	-18.54	0.92
0	12	45	0.00	-0.09	-1.00	-0.34	-15.41	1.86
0	12	46	0.02	-0.11	-1.00	-0.15	-15.54	-1.71
0	12	47	-0.01	-0.12	-1.00	1.72	-16.60	-0.39
0	12	48	0.02	-0.15	-1.00	3.41	-17.85	0.86
0	12	49	0.03	-0.19	-1.00	2.60	-14.35	0.98
0	13	0	-0.00	-0.00	-1.00	-0.22	-0.60	-0.02
0	13	1	-0.00	-0.00	-1.00	-0.09	-0.16	-0.02
0	13	2	-0.00	-0.00	-1.00	-0.03	-0.04	0.04
0	13	3	0.00	-0.01	-1.00	-0.09	-0.54	-0.08
0	13	4	0.01	-0.02	-1.00	-0.34	-3.54	-0.27
0	13	5	0.01	-0.04	-1.00	-0.09	-10.35	0.36
0	13	6	0.02	-0.09	-1.00	0.03	-26.60	-1.27
0	13	7	0.06	-0.20	-1.00	-0.09	-11.72	0.67
0	13	8	0.04	-0.17	-1.00	-0.72	-5.35	-0.77
0	13	9	0.03	-0.24	-1.01	-8.84	-10.54	-2.39
0	13	10	0.01	-0.30	-0.98	-10.47	-4.97	0.73
0	13	11	0.11	-0.51	-0.99	18.60	11.96	2.54
0	13	12	0.18	-0.27	-1.03	-8.65	22.28	-0.58
0	13	13	0.02	-0.15	-0.98	-1.28	35.21	-1.83
0	13	14	0.04	-0.21	-1.00	1.16	39.15	5.42
0	13	15	0.01	-0.16	-0.99	4.16	50.28	-3.52
0	13	16	0.06	-0.10	-1.01	7.72	51.40	-1.96
0	13	17	0.11	-0.05	-1.00	-1.97	65.78	1.92
0	13	18	0.04	0.07	-1.00	1.28	68.65	0.54
0	13	19	-0.02	0.18	-1.00	0.53	63.09	0.17
0	13	20	-0.07	0.32	-1.00	-1.90	52.40	-1.21
0	13	21	-0.04	0.40	-1.00	-0.47	45.28	-0.08
0	13	22	-0.08	0.47	-1.01	-3.22	33.46	-0.52
0	13	23	-0.09	0.50	-1.00	-4.53	17.59	-1.52
0	13	24	-0.08	0.49	-1.00	-2.65	11.40	-0.77
0	13	25	-0.04	0.35	-1.01	-5.09	5.28	0.29
0	13	26	-0.07	0.27	-0.98	-6.40	-16.04	-0.14
0	13	27	-0.01	0.26	-1.00	1.28	-17.35	1.04
0	13	28	-0.07	0.46	-0.99	-2.40	-14.97	0.54
0	13	29	0.01	0.23	-1.00	1.91	-33.10	1.92
0	13	30	0.03	0.17	-1.00	-2.65	-29.47	0.73
0	13	31	-0.02	0.22	-0.99	0.22	-28.66	-1.39
0	13	32	-0.02	0.15	-1.00	2.16	-34.79	1.23
0	13	33	0.02	0.12	-1.00	4.78	-47.54	-0.08
0	13	34	0.07	0.06	-1.00	2.10	-29.79	0.36
0	13	35	-0.01	0.08	-1.00	1.28	-45.35	0.17
0	13	36	0.01	0.06	-1.00	1.72	-52.97	-2.58
0	13	37	0.01	-0.02	-0.99	4.10	-57.91	-2.96
0	13	38	0.05	-0.11	-1.01	2.28	-45.35	6.73
0	13	39	0.06	-0.16	-1.00	1.22	-22.79	-3.64
0	13	40	0.01	-0.14	-0.99	0.41	-20.04	2.36
0	13	41	0.03	-0.16	-1.01	3.10	-27.04	-0.08
0	13	42	0.06	-0.22	-1.00	0.10	-23.10	-0.96
0	13	43	0.04	-0.21	-1.00	-1.03	-17.41	3.86
0	13	44	0.06	-0.23	-1.00	-0.78	-10.85	0.92
0	13	45	0.01	-0.18	-1.00	0.10	-10.35	-1.52
0	13	46	0.01	-0.14	-1.00	-0.22	-5.97	-0.83
0	13	47	0.07	-0.17	-1.00	-0.15	11.78	-0.27
0	13	48	0.06	-0.22	-1.00	0.41	28.53	0.79
0	13	49	0.02	-0.17	-1.00	-0.09	17.65	0.23
0	14	0	-0.00	-0.00	-1.00	-0.03	-0.10	-0.21
0	14	1	-0.00	-0.00	-1.00	0.03	0.21	-0.08
0	14	2	-0.00	-0.00	-1.00	-0.03	0.03	-0.14
0	14	3	0.00	-0.04	-1.00	-0.15	-4.04	-0.14
0	14	4	0.01	-0.02	-1.00	-0.22	-8.16	-0.27
0	14	5	-0.01	-0.01	-1.00	-0.15	-10.66	0.29
0	14	6	0.02	-0.11	-1.00	0.16	-19.97	-1.64
0	14	7	0.04	-0.19	-1.00	-0.40	-16.85	-0.71
0	14	8	0.05	-0.15	-1.01	-1.84	-15.29	-2.14
0	14	9	0.04	-0.15	-1.01	-11.65	-14.41	-2.08
0	14	10	0.00	-0.24	-1.01	-24.78	-27.04	0.67
0	14	11	0.08	-0.66	-0.90	17.35	-24.16	9.79
0	14	12	0.22	-0.44	-1.10	2.53	5.21	-1.96
0	14	13	0.03	-0.06	-0.96	-6.65	13.59	7.61
0	14	14	0.03	-0.16	-1.01	5.97	1.78	10.73
0	14	15	0.04	-0.23	-1.00	0.47	30.71	-4.14
0	14	16	0.04	-0.32	-1.00	3.72	46.46	-14.21
0	14	17	0.10	-0.13	-1.01	5.28	77.03	-1.58
0	14	18	0.08	0.15	-1.01	-5.90	95.96	0.86
0	14	19	-0.01	0.36	-0.99	-2.90	85.21	0.48
0	14	20	-0.10	0.44	-0.99	1.22	60.28	-4.02
0	14	21	-0.09	0.40	-1.00	3.66	38.78	1.11
0	14	22	-0.06	0.26	-1.01	2.85	34.59	-4.46
0	14	23	-0.02	0.30	-0.99	-1.97	34.65	0.67
0	14	24	-0.07	0.46	-1.00	-4.15	19.84	2.11
0	14	25	-0.02	0.47	-0.99	-3.22	12.78	-0.58
0	14	26	-0.03	0.36	-1.01	-5.59	0.09	0.23
0	14	27	-0.05	0.23	-0.98	-6.72	-13.97	0.17
0	14	28	-0.05	0.29	-1.00	-1.28	-11.47	0.48
0	14	29	-0.05	0.29	-0.99	-0.53	-10.22	-0.52
0	14	30	0.02	0.16	-1.00	1.16	-12.60	0.79
0	14	31	0.05	0.14	-1.00	-1.34	-17.60	1.23
0	14	32	0.02	0.20	-1.00	-2.72	-16.29	-0.21
0	14	33	-0.01	0.20	-0.99	-1.78	-17.97	-0.89
0	14	34	-0.03	0.16	-1.00	-0.09	-25.41	0.67
0	14	35	0.03	0.11	-1.00	0.91	-39.47	0.73
0	14	36	0.02	0.07	-1.00	-1.90	-36.16	1.86
0	14	37	0.01	0.08	-1.00	-0.22	-45.97	0.36
0	14	38	0.00	0.11	-0.99	2.22	-52.29	-0.21
0	14	39	0.04	0.05	-1.00	3.16	-51.60	2.11
0	14	40	0.05	-0.06	-1.00	0.16	-42.35	1.04
0	14	41	0.05	-0.11	-1.00	2.22	-32.41	-0.14
0	14	42	-0.00	-0.08	-1.00	0.60	-38.47	-1.52
0	14	43	0.02	-0.10	-0.99	4.41	-35.60	-1.77
0	14	44	0.06	-0.19	-1.00	2.97	-27.29	1.79
0	14	45	0.06	-0.25	-1.01	0.47	-19.85	2.48
0	14	46	0.01	-0.19	-1.00	2.85	-16.72	-1.64
0	14	47	0.01	-0.20	-1.00	4.91	-16.66	-5.02
0	14	48	0.04	-0.20	-1.00	4.53	-8.91	-1.64
0	14	49	0.02	-0.15	-0.99	3.47	0.78	4.92
0	15	0	-0.00	-0.01	-1.00	-0.09	-1.91	0.04
0	15	1	-0.00	0.01	-1.00	-0.15	-1.22	0.04
0	15	2	0.00	-0.02	-1.00	-0.15	-2.79	0.04
0	15	3	-0.00	-0.01	-1.00	-0.15	-4.79	0.23
0	15	4	0.00	-0.02	-1.00	-0.28	-8.22	-0.39
0	15	5	0.01	-0.04	-1.00	0.47	-13.16	-1.96
0	15	6	0.03	-0.14	-1.00	-0.22	-16.22	-1.02
0	15	7	0.03	-0.13	-1.00	-0.15	-15.66	-1.27
0	15	8	0.05	-0.14	-1.00	-0.47	-18.85	0.23
0	15	9	0.02	-0.14	-1.00	-1.09	-17.16	1.92
0	15	10	0.00	-0.28	-1.00	-0.78	-26.29	3.04
0	15	11	0.00	-0.48	-1.01	-0.53	-8.79	-0.08
0	15	12	0.20	-0.58	-1.00	-6.40	4.59	-1.33
0	15	13	0.06	-0.18	-0.99	-7.97	6.46	2.67
0	15	14	0.03	-0.34	-1.00	0.22	15.53	5.04
0	15	15	0.07	-0.27	-1.00	3.72	39.59	-3.46
0	15	16	0.05	-0.18	-1.01	0.16	66.15	-4.71
0	15	17	0.06	-0.14	-1.00	-2.90	81.03	-0.96
0	15	18	0.06	0.11	-1.00	-4.97	82.03	-0.08
0	15	19	0.04	0.33	-0.99	1.35	80.53	-1.77
0	15	20	0.03	0.38	-1.00	1.16	58.59	-0.39
0	15	21	-0.01	0.42	-1.00	-3.65	54.15	-0.71
0	15	22	-0.07	0.49	-1.00	-5.47	40.96	-1.71
0	15	23	-0.12	0.50	-0.99	-0.78	10.65	-4.46
0	15	24	-0.11	0.48	-0.98	2.91	-15.97	-0.02
0	15	25	-0.01	0.42	-1.00	4.35	-22.79	2.92
0	15	26	0.01	0.23	-1.02	-4.40	-0.85	2.48
0	15	27	-0.03	0.25	-0.99	-6.84	-5.35	-0.39
0	15	28	-0.09	0.41	-0.99	-1.47	-2.91	0.67
0	15	29	-0.02	0.24	-1.00	1.85	-15.16	-0.08
0	15	30	0.04	0.13	-1.00	0.03	-8.29	-0.14
0	15	31	0.03	0.12	-1.00	-1.97	-5.22	0.67
0	15	32	-0.02	0.23	-1.00	-1.90	-7.54	0.61
0	15	33	-0.03	0.28	-0.99	0.91	-20.72	-0.96
0	15	34	-0.01	0.22	-1.00	-0.28	-34.29	0.42
0	15	35	-0.01	0.14	-1.00	-1.15	-38.29	1.11
0	15	36	-0.03	0.12	-0.99	-0.90	-38.29	1.54
0	15	37	-0.01	0.13	-1.00	4.22	-61.29	0.92
0	15	38	0.07	-0.03	-1.00	3.78	-59.66	0.17
0	15	39	0.06	-0.08	-1.00	1.91	-50.97	2.79
0	15	40	0.01	-0.04	-1.00	-0.09	-36.60	0.98
0	15	41	0.04	-0.14	-1.00	1.28	-24.91	-0.27
0	15	42	0.06	-0.18	-1.00	-0.22	-20.97	1.73
0	15	43	0.02	-0.16	-1.01	2.72	-19.60	-1.52
0	15	44	0.02	-0.16	-0.99	1.72	-11.10	-0.08
0	15	45	0.02	-0.14	-1.00	6.10	-8.91	2.73
0	15	46	0.04	-0.25	-1.00	4.97	-17.16	-0.39
0	15	47	0.08	-0.29	-1.00	4.60	-8.41	-0.89
0	15	48	0.03	-0.21	-1.01	1.60	14.53	-0.33
0	15	49	0.02	-0.15	-1.00	-0.15	32.03	0.29
0	16	0	-0.00	-0.01	-1.00	-0.22	-1.66	-0.02
0	16	1	0.00	-0.01	-1.00	-0.09	-2.35	-0.08
0	16	2	0.00	-0.01	-1.00	-0.09	-3.35	0.04
0	16	3	0.00	-0.03	-1.00	-0.28	-6.72	-0.08
0	16	4	0.00	-0.10	-1.00	-0.09	-15.85	-0.14
0	16	5	0.02	-0.12	-1.00	-0.15	-11.72	-0.58
0	16	6	0.04	-0.09	-1.00	0.10	-12.29	-1.58
0	16	7	0.05	-0.16	-1.00	0.28	-19.72	-1.83
0	16	8	0.07	-0.21	-1.00	0.10	-21.10	-0.52
0	16	9	0.07	-0.13	-1.00	1.10	-9.66	-2.77
0	16	10	0.05	-0.27	-0.99	-0.90	-18.35	2.86
0	16	11	0.13	-0.63	-1.01	-1.72	-6.79	6.04
0	16	12	0.28	-0.37	-1.00	1.22	16.15	9.61
0	16	13	0.00	-0.08	-1.00	1.16	40.03	1.04
0	16	14	0.02	-0.11	-0.99	-1.22	32.84	0.86
0	16	15	0.00	-0.10	-1.02	-4.40	50.28	-0.02
0	16	16	-0.01	-0.14	-1.01	-21.72	66.09	-3.58
0	16	17	0.00	0.02	-0.94	8.72	75.71	-2.08
0	16	18	-0.16	0.21	-1.06	19.16	66.21	4.04
0	16	19	-0.07	0.20	-0.99	-11.72	52.15	-10.27
0	16	20	-0.02	0.21	-0.99	5.03	47.96	-3.64
0	16	21	0.00	0.22	-1.01	4.60	40.71	0.86
0	16	22	-0.01	0.23	-1.00	-1.34	32.40	-1.02
0	16	23	-0.06	0.31	-1.00	-2.34	19.90	-0.83
0	16	24	-0.05	0.32	-1.00	-4.47	4.78	0.11
0	16	25	0.01	0.26	-1.00	-3.84	8.53	2.11
0	16	26	-0.01	0.25	-1.00	-6.47	-3.04	0.29
0	16	27	-0.01	0.34	-1.00	-6.65	-11.10	-0.58
0	16	28	-0.02	0.38	-0.99	-5.53	3.71	9.42
0	16	29	-0.06	0.34	-1.00	-3.40	-2.91	9.04
0	16	30	-0.08	0.35	-1.00	-6.22	-13.29	-11.39
0	16	31	0.03	0.26	-0.96	-8.97	-7.47	-6.89
0	16	32	0.04	0.19	-1.00	20.97	-23.16	3.86
0	16	33	0.05	0.22	-1.03	-7.34	-16.47	0.29
0	16	34	-0.02	0.29	-1.01	-13.47	-20.79	-1.08
0	16	35	-0.01	0.16	-1.02	-38.72	-24.04	-0.02
0	16	36	-0.01	0.18	-0.95	-22.72	-40.79	-1.33
0	16	37	0.02	0.12	-0.97	4.66	-53.66	-4.52
0	16	38	-0.01	0.06	-1.01	6.35	-44.60	-0.21
0	16	39	-0.02	0.10	-0.98	10.72	-63.16	-2.39
0	16	40	0.04	0.04	-0.94	29.35	-67.29	9.42
0	16	41	0.05	-0.10	-1.08	30.91	-60.10	13.98
0	16	42	0.05	-0.07	-0.99	-11.97	-41.85	-1.96
0	16	43	0.02	-0.12	-0.99	3.41	-32.91	0.48
0	16	44	0.06	-0.17	-1.02	3.16	-34.35	-8.21
0	16	45	0.07	-0.17	-0.99	1.10	-31.97	-12.08
0	16	46	0.05	-0.23	-0.98	-0.97	-27.91	-0.89
0	16	47	0.03	-0.29	-1.00	3.28	-28.97	3.48
0	16	48	0.04	-0.26	-0.99	5.22	-20.16	7.42
0	16	49	0.06	-0.23	-1.01	3.66	-13.60	7.23
0	17	0	-0.00	-0.00	-1.00	-0.09	0.46	-0.21
0	17	1	-0.00	-0.01	-1.00	-0.22	-1.29	-0.08
0	17	2	-0.00	-0.00	-1.00	-0.15	-2.47	-0.08
0	17	3	0.00	-0.01	-1.00	0.35	-2.72	-1.21
0	17	4	0.02	-0.11	-1.00	0.85	-6.41	-2.89
0	17	5	0.05	-0.21	-1.00	0.72	-14.91	-2.27
0	17	6	0.04	-0.09	-1.00	0.91	-1.60	-2.71
0	17	7	0.04	-0.11	-1.00	-0.78	-8.16	2.04
0	17	8	0.06	-0.30	-1.00	-0.97	-14.85	0.92
0	17	9	0.03	-0.22	-1.00	-0.78	-3.79	-0.83
0	17	10	0.01	-0.47	-1.01	0.22	4.15	0.23
0	17	11	0.22	-0.36	-1.01	4.41	20.03	-12.71
0	17	12	0.01	-0.12	-0.97	4.97	42.03	3.42
0	17	13	0.02	-0.23	-0.99	-9.84	46.15	9.23
0	17	14	-0.02	-0.14	-1.03	-2.59	56.40	7.67
0	17	15	0.05	-0.07	-0.99	0.47	64.03	-1.96
0	17	16	0.07	0.03	-1.00	-0.34	74.59	0.92
0	17	17	0.05	0.13	-1.00	0.60	69.34	-2.46
0	17	18	0.00	0.15	-1.00	-0.34	52.53	1.54
0	17	19	-0.06	0.23	-1.01	0.53	42.53	-2.21
0	17	20	-0.05	0.24	-0.99	0.53	31.46	-0.14
0	17	21	-0.06	0.19	-1.00	-1.59	30.28	0.61
0	17	22	-0.01	0.26	-1.00	0.47	23.21	1.73
0	17	23	-0.03	0.35	-1.00	-0.47	16.40	0.79
0	17	24	-0.05	0.33	-1.00	0.16	5.59	-0.27
0	17	25	-0.07	0.25	-1.00	-0.22	-3.72	-1.14
0	17	26	-0.06	0.24	-1.00	-0.03	-2.85	0.17
0	17	27	-0.02	0.20	-1.01	-2.65	-0.97	0.36
0	17	28	-0.03	0.20	-1.00	-8.22	-8.35	0.11
0	17	29	-0.03	0.25	-0.99	-3.65	-7.04	0.29
0	17	30	0.01	0.14	-1.00	-0.09	-8.47	-0.14
0	17	31	0.01	0.15	-1.00	0.22	-9.97	0.67
0	17	32	0.04	0.04	-1.00	2.10	-21.85	0.79
0	17	33	0.03	0.13	-1.00	2.72	-24.10	0.36
0	17	34	0.01	0.14	-1.00	2.28	-22.16	-1.21
0	17	35	-0.02	0.20	-1.00	0.47	-21.97	-0.89
0	17	36	-0.05	0.27	-1.00	0.03	-27.04	0.98
0	17	37	-0.03	0.18	-1.00	0.22	-34.35	0.67
0	17	38	0.02	0.09	-1.00	1.41	-37.10	0.17
0	17	39	0.02	0.03	-1.00	2.35	-38.72	-0.89
0	17	40	0.01	-0.02	-1.00	-0.09	-38.41	0.54
0	17	41	0.04	-0.07	-1.00	-0.47	-36.16	1.54
0	17	42	0.02	-0.06	-1.00	-0.53	-25.79	-0.08
0	17	43	0.01	-0.05	-1.00	-0.22	-24.66	0.23
0	17	44	0.02	-0.08	-1.00	-0.90	-26.29	0.92
0	17	45	0.02	-0.07	-1.00	-0.72	-26.22	1.98
0	17	46	0.01	-0.13	-1.00	0.53	-18.79	-2.52
0	17	47	-0.02	-0.12	-1.00	1.28	-17.04	0.98
0	17	48	0.01	-0.13	-1.00	-1.15	-21.91	0.79
0	17	49	0.09	-0.17	-1.00	-0.65	-18.29	-0.52
0	18	0	0.00	-0.02	-1.00	0.03	-2.66	0.29
0	18	1	-0.00	-0.01	-1.00	-0.15	-5.91	0.23
0	18	2	0.00	-0.01	-1.00	-0.03	-7.54	-0.96
0	18	3	0.00	-0.02	-1.00	0.97	-11.47	-3.14
0	18	4	0.03	-0.11	-1.00	0.41	-15.04	-1.64
0	18	5	0.01	-0.12	-1.00	0.10	-6.22	-0.08
0	18	6	0.01	-0.07	-1.00	0.03	-7.04	-0.27
0	18	7	0.02	-0.06	-1.00	-0.03	-13.60	-1.08
0	18	8	0.03	-0.12	-1.01	-2.03	-22.97	-2.08
0	18	9	0.04	-0.24	-0.99	-5.34	-26.97	-2.27
0	18	10	0.02	-0.25	-1.01	-10.03	-13.97	-0.83
0	18	11	0.12	-0.58	-0.95	13.41	-7.66	13.29
0	18	12	0.13	-0.21	-1.05	-7.84	3.90	2.29
0	18	13	0.02	-0.14	-0.98	0.60	9.78	17.67
0	18	14	0.09	-0.19	-1.01	-6.34	32.40	-5.08
0	18	15	-0.01	-0.09	-1.00	-9.09	47.71	-0.02
0	18	16	0.02	-0.04	-1.00	-13.53	48.21	-5.96
0	18	17	0.03	-0.02	-0.98	-4.65	52.53	-13.58
0	18	18	0.05	0.04	-0.97	11.10	54.53	-1.08
0	18	19	0.02	0.13	-1.01	22.72	48.96	1.04
0	18	20	0.03	0.17	-1.03	-1.78	47.96	-1.27
0	18	21	-0.06	0.25	-0.99	-3.53	42.78	-0.02
0	18	22	-0.12	0.26	-1.00	0.60	27.78	-0.89
0	18	23	-0.08	0.26	-0.99	4.60	11.84	0.98
0	18	24	-0.02	0.28	-1.01	6.72	15.84	-3.21
0	18	25	-0.01	0.29	-1.00	-1.47	18.78	0.29
0	18	26	-0.05	0.37	-1.01	-0.47	13.59	2.86
0	18	27	-0.07	0.41	-1.01	-3.28	6.28	-0.89
0	18	28	-0.11	0.28	-1.00	-9.59	-1.29	0.73
0	18	29	-0.05	0.29	-0.98	-1.53	-6.79	0.11
0	18	30	-0.02	0.20	-1.01	1.60	-2.29	-0.08
0	18	31	0.00	0.32	-1.00	-1.47	-5.16	1.11
0	18	32	-0.00	0.28	-1.00	-0.97	-12.22	-0.33
0	18	33	0.00	0.22	-1.00	-1.03	-15.66	-1.52
0	18	34	-0.02	0.19	-1.00	-1.78	-21.22	0.17
0	18	35	-0.03	0.14	-0.99	1.28	-34.60	0.11
0	18	36	0.01	0.07	-1.00	1.10	-48.91	1.67
0	18	37	0.04	0.03	-1.00	2.03	-48.35	0.36
0	18	38	0.02	0.02	-1.00	-1.28	-49.47	-1.14
0	18	39	0.02	-0.03	-1.00	-0.28	-42.29	1.79
0	18	40	0.04	-0.11	-1.00	-2.03	-33.85	-0.39
0	18	41	0.03	-0.10	-0.99	1.10	-33.66	0.04
0	18	42	0.03	-0.11	-1.01	0.66	-30.22	-1.02
0	18	43	0.02	-0.10	-0.99	1.35	-26.10	2.61
0	18	44	-0.01	-0.10	-1.00	8.97	-19.29	-0.83
0	18	45	-0.02	-0.08	-1.01	1.28	-12.22	-1.39
0	18	46	-0.02	-0.03	-1.00	2.41	6.09	-2.14
0	18	47	0.13	-0.07	-1.00	-0.84	5.21	-0.14
0	18	48	0.04	-0.13	-1.00	1.28	-16.85	-3.27
0	18	49	-0.02	-0.16	-1.00	1.91	-8.79	-2.33
0	19	0	0.00	-0.01	-1.00	-0.09	-2.35	0.11
0	19	1	-0.00	-0.02	-1.00	-0.09	-3.66	0.04
0	19	2	0.01	-0.08	-1.00	-0.09	-8.54	0.04
0	19	3	0.03	-0.10	-1.00	-0.15	-7.35	-0.14
0	19	4	0.04	-0.09	-1.00	-0.34	-1.41	-0.71
0	19	5	0.03	-0.07	-1.01	-0.65	-2.35	0.36
0	19	6	0.02	-0.07	-1.02	-10.03	-11.85	-1.83
0	19	7	0.03	-0.19	-0.99	-12.84	-22.29	-2.39
0	19	8	0.02	-0.33	-1.00	-7.28	-18.60	0.04
0	19	9	0.08	-0.58	-0.98	8.47	-9.04	4.54
0	19	10	0.12	-0.31	-1.05	-7.09	-22.16	7.23
0	19	11	0.09	-0.20	-0.99	3.41	2.84	22.04
0	19	12	0.01	-0.20	-1.01	5.10	21.65	11.67
0	19	13	0.02	-0.18	-1.01	-51.59	49.15	-27.71
0	19	14	0.13	-0.21	-0.89	7.91	59.78	-1.83
0	19	15	0.08	0.04	-1.13	36.41	72.53	-0.77
0	19	16	0.08	0.25	-0.97	-18.03	84.78	0.29
0	19	17	-0.06	0.36	-0.99	0.47	65.09	0.29
0	19	18	-0.11	0.30	-0.99	-2.09	39.65	-3.52
0	19	19	-0.09	0.13	-1.00	-6.78	28.28	-17.21
0	19	20	-0.03	0.03	-0.99	9.91	33.15	-0.14
0	19	21	0.02	0.21	-1.01	4.28	37.90	0.42
0	19	22	-0.01	0.47	-0.99	-0.97	34.03	-0.89
0	19	23	-0.02	0.52	-0.99	0.41	9.84	-0.89
0	19	24	-0.04	0.41	-1.00	-2.22	-1.79	-1.21
0	19	25	-0.08	0.28	-1.00	-10.03	-17.22	2.36
0	19	26	-0.05	0.20	-0.99	-13.90	-10.35	9.17
0	19	27	-0.02	0.29	-0.94	10.22	-0.29	3.17
0	19	28	-0.08	0.31	-1.05	7.10	-10.04	-4.46
0	19	29	0.01	0.22	-0.97	-1.84	-16.85	-5.58
0	19	30	0.03	0.11	-1.01	2.22	-20.04	1.48
0	19	31	0.02	0.17	-1.00	-1.84	-18.29	-1.58
0	19	32	-0.00	0.22	-1.00	-3.22	-21.54	1.36
0	19	33	-0.01	0.19	-1.00	-5.53	-29.47	0.54
0	19	34	-0.00	0.09	-1.03	-24.22	-31.60	2.73
0	19	35	-0.00	0.06	-0.99	-31.59	-31.35	13.86
0	19	36	-0.03	0.08	-0.95	-2.84	-40.04	3.86
0	19	37	0.01	0.04	-0.97	19.22	-44.91	-0.08
0	19	38	0.05	-0.03	-1.02	27.28	-34.35	-12.52
0	19	39	0.01	-0.01	-1.01	18.10	-26.41	-1.46
0	19	40	0.01	0.03	-1.00	-3.90	-27.29	1.67
0	19	41	0.03	-0.01	-0.99	3.85	-31.10	0.42
0	19	42	0.04	-0.08	-1.00	6.10	-25.72	3.17
0	19	43	0.03	-0.12	-1.00	4.78	-22.72	-2.39
0	19	44	0.03	-0.12	-0.99	7.78	-18.10	0.54
0	19	45	-0.01	-0.11	-0.98	21.28	-14.16	1.98
0	19	46	0.04	-0.11	-1.03	4.10	-10.85	-0.46
0	19	47	0.04	-0.14	-0.99	-1.40	-9.91	-0.83
0	19	48	0.04	-0.20	-1.00	0.91	-10.10	0.86
0	19	49	0.01	-0.14	-1.00	0.22	-1.97	0.79
0	20	0	0.00	-0.03	-1.00	0.53	-5.10	-1.77
0	20	1	0.01	-0.13	-1.00	-0.15	-3.79	0.73
0	20	2	-0.00	-0.05	-1.00	0.03	-7.54	0.42
0	20	3	0.00	-0.01	-1.00	-0.28	-5.10	0.17
0	20	4	0.02	-0.04	-1.00	0.28	-8.29	0.11
0	20	5	0.02	-0.13	-1.01	-3.09	-12.97	0.11
0	20	6	0.05	-0.32	-1.00	-7.03	-19.10	1.36
0	20	7	0.01	-0.36	-0.99	-9.28	1.21	1.42
0	20	8	0.09	-0.50	-1.01	1.66	-8.72	0.48
0	20	9	0.19	-0.13	-1.00	-9.40	-6.72	5.98
0	20	10	0.02	-0.08	-0.99	1.85	21.78	12.92
0	20	11	0.06	-0.08	-1.00	-5.34	2.40	-4.64
0	20	12	-0.01	-0.11	-1.01	-4.53	27.46	-0.46
0	20	13	0.01	-0.19	-1.01	-15.22	41.15	1.17
0	20	14	0.14	-0.09	-0.93	21.72	57.21	-1.52
0	20	15	0.03	0.17	-1.07	4.72	68.28	2.73
0	20	16	0.02	0.33	-0.98	-4.34	54.53	4.29
0	20	17	-0.08	0.27	-1.01	13.53	34.15	17.61
0	20	18	-0.09	0.15	-0.98	5.85	23.53	-4.33
0	20	19	-0.06	0.15	-0.94	-18.40	28.03	-18.96
0	20	20	-0.05	0.24	-1.06	-4.90	28.34	-23.27
0	20	21	0.04	0.26	-0.99	2.66	14.03	2.92
0	20	22	-0.04	0.35	-1.01	-2.22	8.59	-0.77
0	20	23	-0.08	0.32	-0.99	-1.59	-6.22	3.42
0	20	24	-0.07	0.21	-1.00	-0.97	-16.29	14.23
0	20	25	-0.04	0.15	-1.00	-5.03	-4.16	-1.33
0	20	26	-0.06	0.22	-0.99	0.35	-4.10	-0.39
0	20	27	-0.05	0.24	-1.00	-0.90	-8.91	-5.27
0	20	28	0.01	0.14	-1.00	-1.59	-11.97	-10.96
0	20	29	0.00	0.11	-1.00	1.28	-12.72	1.36
0	20	30	-0.01	0.16	-1.00	-0.47	-13.04	0.48
0	20	31	-0.01	0.18	-1.00	0.47	-12.66	-0.33
0	20	32	-0.00	0.21	-1.00	-1.78	-14.97	1.11
0	20	33	-0.02	0.22	-1.00	-1.72	-18.97	0.86
0	20	34	-0.02	0.16	-1.00	-0.40	-23.47	3.17
0	20	35	0.01	0.06	-0.99	-3.34	-27.47	-4.39
0	20	36	0.03	0.03	-1.00	12.10	-28.72	3.04
0	20	37	0.03	0.05	-1.01	0.47	-31.47	-0.33
0	20	38	0.03	0.03	-1.00	2.47	-32.97	0.61
0	20	39	0.02	-0.03	-1.00	-0.97	-31.85	0.23
0	20	40	0.03	-0.08	-0.99	2.10	-23.47	1.98
0	20	41	0.03	-0.09	-1.01	7.16	-20.66	-0.64
0	20	42	0.00	-0.07	-0.99	6.10	-19.91	0.42
0	20	43	-0.02	-0.03	-1.01	7.28	-17.97	1.92
0	20	44	-0.03	-0.08	-1.00	-1.53	-9.22	-2.21
0	20	45	0.02	-0.16	-1.00	0.22	8.90	0.36
0	20	46	0.09	-0.22	-1.00	0.60	10.65	1.61
0	20	47	0.07	-0.21	-1.00	-0.22	8.15	-1.02
0	20	48	0.04	-0.16	-1.00	-0.15	18.28	-1.52
0	20	49	-0.04	-0.07	-1.00	-0.40	27.21	0.42
0	21	0	0.00	-0.01	-1.00	-0.28	-9.22	-0.14
0	21	1	-0.00	-0.01	-1.00	-0.28	-9.35	-0.27
0	21	2	0.01	-0.09	-1.00	0.10	-16.04	-0.02
0	21	3	0.01	-0.09	-1.00	-0.03	-19.35	-1.33
0	21	4	0.02	-0.03	-1.00	0.22	-14.10	-1.83
0	21	5	0.03	-0.06	-1.00	-0.09	-20.22	-1.02
0	21	6	0.02	-0.10	-1.03	-11.84	-30.29	-3.27
0	21	7	0.04	-0.18	-1.02	-28.59	-28.60	-3.96
0	21	8	0.02	-0.29	-0.97	-26.97	-13.35	-1.83
0	21	9	0.14	-0.58	-0.86	36.60	-10.72	14.11
0	21	10	0.10	-0.24	-1.18	9.78	14.90	4.29
0	21	11	0.08	-0.06	-0.92	-11.15	28.71	-1.08
0	21	12	0.04	-0.06	-1.02	12.03	18.15	15.36
0	21	13	0.01	-0.01	-1.02	-11.09	22.15	-5.14
0	21	14	-0.06	-0.02	-1.04	-28.28	35.09	-7.33
0	21	15	-0.03	-0.08	-0.97	-35.22	42.40	-18.52
0	21	16	0.03	-0.04	-0.92	7.78	48.90	-0.71
0	21	17	0.02	0.05	-0.99	42.10	38.59	8.54
0	21	18	-0.02	0.13	-1.08	28.03	37.65	-0.02
0	21	19	-0.04	0.19	-0.99	-10.90	33.78	-1.14
0	21	20	-0.09	0.15	-1.00	6.60	25.90	-0.14
0	21	21	-0.07	0.11	-1.00	1.53	22.40	0.73
0	21	22	-0.07	0.17	-1.00	0.28	-0.47	0.17
0	21	23	0.02	0.20	-1.00	0.66	-5.29	-0.58
0	21	24	0.01	0.24	-1.00	1.10	8.90	-0.02
0	21	25	-0.02	0.28	-1.00	0.03	12.09	1.04
0	21	26	-0.05	0.33	-1.00	-2.84	6.78	0.17
0	21	27	-0.07	0.33	-1.00	-3.84	3.78	-0.27
0	21	28	-0.06	0.17	-1.00	-7.40	0.34	-0.02
0	21	29	-0.05	0.22	-0.99	-2.78	-0.66	0.17
0	21	30	-0.04	0.23	-1.00	-1.09	-4.22	-0.39
0	21	31	-0.03	0.31	-0.99	-0.72	-9.29	-0.46
0	21	32	0.04	0.19	-1.00	0.10	-17.16	-0.08
0	21	33	0.04	0.14	-1.00	-0.65	-15.04	-0.96
0	21	34	0.01	0.16	-1.00	-0.09	-12.97	0.73
0	21	35	-0.02	0.17	-1.00	-1.28	-15.35	0.36
0	21	36	-0.04	0.17	-1.00	-1.28	-22.97	1.48
0	21	37	-0.02	0.14	-1.00	1.60	-30.60	1.36
0	21	38	0.01	0.05	-1.00	-0.28	-37.22	-3.14
0	21	39	0.04	-0.02	-1.00	4.22	-35.16	1.92
0	21	40	0.05	-0.08	-1.00	1.97	-31.66	-0.14
0	21	41	0.03	-0.09	-1.00	3.10	-19.85	0.11
0	21	42	0.01	-0.08	-1.00	0.41	-18.54	-0.08
0	21	43	-0.03	-0.04	-0.99	7.22	-12.47	2.11
0	21	44	-0.06	-0.02	-1.02	2.10	-5.41	-1.46
0	21	45	0.03	-0.07	-0.99	0.10	9.46	0.42
0	21	46	0.07	-0.15	-1.00	0.47	1.65	1.11
0	21	47	0.04	-0.19	-1.00	-0.90	-2.72	-0.64
0	21	48	0.01	-0.12	-1.00	0.35	7.40	-1.27
0	21	49	0.01	-0.12	-1.00	0.47	7.90	1.04
0	22	0	0.03	-0.07	-1.00	0.03	-12.29	-0.02
0	22	1	0.03	-0.10	-1.00	-3.34	-21.79	0.17
0	22	2	-0.00	-0.20	-0.99	-3.34	-36.29	0.36
0	22	3	-0.01	-0.37	-1.00	-1.03	-17.79	1.98
0	22	4	0.13	-0.28	-1.00	-0.34	-1.85	-0.52
0	22	5	0.05	-0.14	-1.00	-3.15	5.96	-1.33
0	22	6	0.06	-0.21	-1.00	0.10	1.71	1.48
0	22	7	0.05	-0.13	-1.00	-0.47	4.28	3.11
0	22	8	-0.02	-0.12	-1.00	0.97	-11.29	11.67
0	22	9	0.02	-0.19	-1.01	-5.72	9.21	-2.33
0	22	10	-0.04	-0.15	-0.99	-0.84	44.34	-0.46
0	22	11	0.02	-0.05	-1.01	-6.78	55.78	-7.77
0	22	12	0.05	0.05	-0.99	-6.97	45.40	-8.27
0	22	13	0.01	0.14	-1.00	-0.09	34.46	0.17
0	22	14	-0.07	0.16	-0.99	2.35	19.46	0.04
0	22	15	-0.08	0.15	-1.00	2.66	7.34	-0.77
0	22	16	-0.03	0.18	-1.00	2.35	25.34	-1.33
0	22	17	-0.01	0.22	-1.00	-0.72	19.96	0.79
0	22	18	0.03	0.29	-1.00	0.10	15.09	-0.64
0	22	19	0.01	0.34	-1.00	1.35	5.46	0.36
0	22	20	-0.17	0.33	-1.00	4.60	-7.54	0.29
0	22	21	-0.06	0.26	-1.00	4.28	-15.22	-3.27
0	22	22	-0.02	0.13	-0.99	0.28	-10.10	4.98
0	22	23	-0.01	0.12	-1.01	-0.22	-0.16	0.42
0	22	24	-0.02	0.10	-1.00	-9.09	-5.47	0.04
0	22	25	-0.05	0.26	-0.99	-1.40	-4.97	-0.64
0	22	26	-0.01	0.23	-0.99	2.10	-6.91	-0.02
0	22	27	0.02	0.13	-1.00	3.03	-7.60	-0.58
0	22	28	0.01	0.15	-1.00	0.60	-0.72	0.17
0	22	29	-0.02	0.26	-1.00	0.35	1.90	0.36
0	22	30	-0.06	0.27	-1.00	1.72	-3.54	0.23
0	22	31	-0.05	0.21	-1.00	0.97	-15.22	0.61
0	22	32	-0.03	0.17	-1.00	2.72	-29.41	0.29
0	22	33	-0.02	0.13	-1.00	4.22	-35.47	-0.02
0	22	34	-0.00	0.07	-1.00	0.66	-37.22	1.36
0	22	35	0.03	-0.00	-1.00	0.10	-36.35	0.04
0	22	36	0.05	-0.08	-1.00	-0.72	-28.41	0.29
0	22	37	-0.00	-0.09	-1.00	-0.40	-20.10	0.36
0	22	38	-0.00	-0.08	-1.00	-0.84	-22.79	2.86
0	22	39	0.04	-0.13	-1.01	-0.03	9.34	-0.77
0	22	40	0.07	-0.20	-0.99	0.35	3.84	-1.96
0	22	41	0.03	-0.16	-1.00	0.10	15.46	2.23
0	22	42	-0.06	-0.04	-1.00	-0.59	34.96	0.17
0	22	43	-0.12	0.08	-1.00	-0.78	3.84	-0.64
0	22	44	0.15	-0.14	-1.00	0.47	5.65	0.73
0	22	45	0.01	-0.20	-1.00	0.16	-24.54	0.11
0	22	46	0.01	-0.18	-1.00	0.16	-11.22	-2.14
0	22	47	0.01	-0.21	-1.00	-0.47	-4.29	0.86
0	22	48	0.00	-0.12	-1.00	-0.22	-4.97	-0.21
0	22	49	0.02	-0.03	-1.00	-0.22	-9.47	0.42
0	23	0	0.01	-0.15	-1.00	-0.34	-21.35	-0.21
0	23	1	-0.00	-0.07	-1.00	0.22	-11.41	-1.52
0	23	2	0.03	-0.07	-1.00	0.53	-10.10	-1.33
0	23	3	0.03	-0.19	-1.00	-0.15	-14.35	-0.71
0	23	4	0.01	-0.23	-1.00	0.03	-11.16	-0.52
0	23	5	0.05	-0.52	-1.00	-0.40	-6.41	2.42
0	23	6	0.15	-0.32	-1.01	1.41	11.71	-7.64
0	23	7	0.05	-0.10	-0.99	0.22	28.59	-9.71
0	23	8	0.06	-0.13	-0.99	0.47	16.15	5.17
0	23	9	0.01	-0.03	-0.99	-3.59	16.96	13.67
0	23	10	-0.05	-0.09	-1.02	-3.28	22.15	9.48
0	23	11	0.01	-0.25	-1.00	1.53	44.15	-3.58
0	23	12	0.07	-0.11	-1.00	-1.09	62.59	-1.08
0	23	13	0.07	0.10	-1.00	-0.34	64.65	0.67
0	23	14	-0.01	0.24	-1.00	0.03	51.59	0.36
0	23	15	-0.05	0.20	-1.01	2.03	29.46	-8.64
0	23	16	-0.10	0.04	-0.98	0.60	14.84	-0.71
0	23	17	-0.04	0.07	-1.00	-1.47	13.46	5.17
0	23	18	0.02	0.22	-1.00	-0.78	22.59	3.73
0	23	19	0.01	0.33	-1.00	0.03	9.21	-0.39
0	23	20	-0.07	0.33	-1.00	-1.03	-9.04	-0.58
0	23	21	-0.06	0.25	-1.00	0.60	-19.85	-2.71
0	23	22	-0.06	0.10	-0.99	0.60	-20.60	-1.14
0	23	23	-0.02	0.06	-1.01	-1.15	-18.72	4.23
0	23	24	0.00	0.07	-1.00	0.16	-12.54	-0.27
0	23	25	-0.02	0.23	-1.00	-0.09	-6.10	0.48
0	23	26	-0.01	0.15	-1.00	-0.22	-5.91	-0.08
0	23	27	-0.01	0.12	-1.00	-0.09	-14.47	-0.08
0	23	28	-0.01	0.18	-1.00	-0.03	-5.22	-0.83
0	23	29	-0.03	0.17	-1.00	-0.47	-3.29	-0.46
0	23	30	-0.03	0.22	-1.00	-1.09	-4.10	-0.77
0	23	31	-0.01	0.20	-1.00	-0.34	-7.22	0.79
0	23	32	-0.01	0.24	-1.00	0.85	-5.91	-0.02
0	23	33	-0.02	0.24	-1.00	-0.40	-15.35	0.23
0	23	34	-0.02	0.18	-1.00	-0.65	-23.54	0.98
0	23	35	-0.02	0.12	-1.00	-0.22	-31.47	0.61
0	23	36	-0.03	0.10	-1.00	-0.59	-38.66	-0.83
0	23	37	-0.00	0.05	-1.00	0.35	-43.41	0.04
0	23	38	0.01	-0.00	-1.00	-0.53	-41.79	0.92
0	23	39	0.02	-0.05	-1.00	-0.15	-38.04	0.61
0	23	40	0.01	-0.06	-1.00	0.22	-32.97	0.11
0	23	41	0.02	-0.10	-1.00	-0.22	-31.85	1.48
0	23	42	0.03	-0.12	-1.00	-0.72	-20.60	1.17
0	23	43	0.02	-0.08	-1.00	0.41	-15.22	-2.39
0	23	44	-0.02	-0.04	-1.00	0.85	-12.72	0.92
0	23	45	-0.01	-0.05	-1.00	-0.15	-10.29	-0.21
0	23	46	0.04	-0.11	-1.00	-0.78	-12.10	0.11
0	23	47	0.07	-0.18	-1.00	0.03	-19.79	0.98
0	23	48	0.03	-0.17	-1.00	0.41	-17.66	1.11
0	23	49	0.03	-0.16	-1.00	-0.22	-9.47	-1.71
0	24	0	0.04	-0.18	-1.00	0.53	-19.60	-3.08
0	24	1	0.02	-0.16	-1.00	1.03	-9.16	-5.21
0	24	2	-0.01	-0.16	-1.01	-3.40	-4.91	-2.14
0	24	3	0.04	-0.43	-0.96	2.47	8.40	3.04
0	24	4	0.10	-0.31	-1.02	-0.97	29.28	5.36
0	24	5	0.10	-0.02	-0.99	-0.72	42.53	1.11
0	24	6	0.06	0.05	-1.01	4.16	29.09	1.92
0	24	7	0.01	0.03	-1.07	-4.90	18.78	7.86
0	24	8	-0.04	-0.03	-1.11	-71.78	33.65	-10.08
0	24	9	-0.03	-0.10	-0.96	-85.90	41.78	-20.52
0	24	10	0.01	-0.16	-0.84	-36.34	43.40	-14.39
0	24	11	0.08	-0.02	-0.83	54.85	36.53	12.42
0	24	12	0.01	0.19	-1.02	103.03	22.71	20.54
0	24	13	-0.06	0.24	-1.14	56.41	13.09	0.23
0	24	14	-0.07	0.19	-1.10	-12.15	23.40	-1.71
0	24	15	-0.04	0.11	-0.99	-33.40	28.90	-6.21
0	24	16	-0.02	0.11	-0.94	-13.65	24.46	-4.71
0	24	17	-0.04	0.12	-0.96	8.35	21.03	-1.52
0	24	18	-0.02	0.16	-0.97	28.28	9.90	0.61
0	24	19	-0.06	0.22	-1.03	32.66	5.90	2.67
0	24	20	-0.07	0.24	-1.06	1.03	6.65	0.17
0	24	21	-0.04	0.22	-0.99	-1.65	9.59	0.11
0	24	22	-0.05	0.20	-1.01	-7.78	7.96	-0.39
0	24	23	0.00	0.13	-0.96	-2.28	3.21	0.29
0	24	24	-0.04	0.10	-1.02	5.16	0.53	3.23
0	24	25	-0.04	0.21	-1.00	-4.34	-4.10	-2.08
0	24	26	-0.00	0.14	-1.00	-3.28	-8.60	-0.08
0	24	27	0.01	0.17	-1.00	-2.47	-6.97	-0.21
0	24	28	-0.04	0.34	-1.00	-1.03	-3.41	-0.39
0	24	29	-0.06	0.22	-0.99	-0.59	-15.35	1.86
0	24	30	-0.05	0.20	-1.00	-5.15	-19.35	-1.08
0	24	31	-0.01	0.12	-1.00	-2.15	-24.97	1.36
0	24	32	-0.01	0.07	-1.00	-0.72	-28.35	3.98
0	24	33	0.00	0.02	-1.00	-0.90	-31.97	2.79
0	24	34	0.01	-0.02	-1.00	-0.28	-29.35	-0.21
0	24	35	0.01	-0.03	-1.01	-0.40	-29.22	2.67
0	24	36	-0.01	-0.04	-1.00	-0.34	-29.22	-0.89
0	24	37	0.00	-0.06	-1.00	0.41	-26.41	-1.83
0	24	38	0.01	-0.05	-1.00	-0.03	-25.16	-0.58
0	24	39	0.02	-0.10	-1.00	-0.90	-23.97	0.42
0	24	40	0.03	-0.13	-1.00	0.85	-25.54	1.73
0	24	41	0.03	-0.16	-1.00	-0.59	-19.41	0.29
0	24	42	0.03	-0.16	-1.00	-1.59	-16.79	1.73
0	24	43	0.01	-0.06	-1.00	-0.84	-12.85	2.04
0	24	44	-0.01	-0.05	-1.00	-0.15	-15.41	2.11
0	24	45	-0.00	-0.08	-1.00	0.35	-19.97	0.73
0	24	46	0.02	-0.10	-1.00	-0.90	-17.60	0.67
0	24	47	0.03	-0.14	-1.00	-1.03	-13.04	2.11
0	24	48	0.03	-0.13	-1.00	-0.22	-8.91	0.11
0	24	49	0.02	-0.14	-1.00	0.10	-2.79	0.04
0	25	0	0.02	-0.15	-1.00	-0.34	-7.29	1.17
0	25	1	0.02	-0.08	-1.00	-0.15	-6.35	-0.33
0	25	2	0.02	-0.06	-1.00	0.28	-3.72	-0.77
0	25	3	0.03	-0.22	-1.00	-0.15	-4.10	0.92
0	25	4	0.08	-0.38	-1.00	0.10	3.78	1.48
0	25	5	0.09	-0.27	-1.00	-0.28	12.46	1.11
0	25	6	0.08	-0.26	-1.00	-0.72	17.71	-1.14
0	25	7	0.08	-0.22	-1.00	-0.22	23.21	-0.27
0	25	8	0.04	-0.16	-1.00	-0.22	34.40	1.36
0	25	9	0.01	-0.13	-1.00	-0.78	46.40	-1.58
0	25	10	0.02	-0.10	-1.00	-0.34	54.90	2.04
0	25	11	0.08	-0.02	-1.00	0.53	56.65	-2.71
0	25	12	0.06	0.06	-0.99	-0.53	48.03	0.23
0	25	13	0.03	0.08	-1.00	0.16	44.03	-0.39
0	25	14	-0.00	0.11	-1.00	0.60	39.15	-2.21
0	25	15	-0.05	0.17	-1.00	0.66	43.21	-3.14
0	25	16	-0.07	0.23	-1.00	3.28	31.21	-3.46
0	25	17	-0.04	0.27	-1.00	3.10	30.21	0.61
0	25	18	-0.04	0.28	-1.00	0.66	17.46	-0.89
0	25	19	-0.04	0.27	-1.00	0.03	3.65	1.73
0	25	20	-0.05	0.20	-1.00	0.78	0.90	1.04
0	25	21	-0.07	0.14	-1.00	0.97	-5.72	0.48
0	25	22	-0.08	0.09	-0.99	-1.40	-6.41	3.79
0	25	23	0.00	0.13	-1.01	-4.97	-6.79	9.42
0	25	24	0.01	0.13	-1.00	-3.90	4.40	-0.96
0	25	25	-0.05	0.12	-1.00	-0.15	-3.97	-2.83
0	25	26	-0.00	0.17	-1.00	-0.34	-5.41	-0.52
0	25	27	-0.02	0.13	-1.00	0.10	-7.85	0.61
0	25	28	0.01	0.04	-1.00	-0.09	-6.47	0.23
0	25	29	-0.01	0.18	-1.00	-1.59	-1.47	-1.58
0	25	30	-0.01	0.21	-1.00	-0.15	-8.10	1.86
0	25	31	-0.02	0.24	-1.00	-2.53	-11.35	-1.08
0	25	32	-0.04	0.29	-1.00	-0.65	-23.22	-0.14
0	25	33	-0.02	0.19	-1.00	-0.09	-36.16	-1.33
0	25	34	0.03	0.02	-0.99	0.47	-41.10	0.86
0	25	35	-0.00	-0.01	-1.01	0.60	-34.41	-0.33
0	25	36	-0.01	0.02	-0.99	-0.28	-38.47	-0.02
0	25	37	0.03	0.01	-1.01	0.91	-35.85	-0.39
0	25	38	0.03	0.01	-1.00	-0.15	-36.04	-0.71
0	25	39	0.02	-0.08	-1.00	-0.28	-33.29	2.67
0	25	40	-0.01	-0.08	-1.00	-0.78	-23.04	-1.71
0	25	41	-0.01	-0.21	-1.00	0.53	-25.60	0.29
0	25	42	0.02	-0.13	-1.00	-0.72	-18.04	2.54
0	25	43	0.05	-0.16	-1.00	-1.03	-12.22	-0.46
0	25	44	0.01	-0.12	-1.00	0.35	0.71	-1.39
0	25	45	0.02	-0.10	-1.00	0.60	8.78	1.36
0	25	46	-0.00	-0.08	-1.00	-0.59	7.40	0.98
0	25	47	0.01	-0.12	-1.00	-0.09	22.34	-2.27
0	25	48	0.05	-0.12	-1.00	0.28	14.21	0.48
0	25	49	-0.02	-0.08	-1.00	-0.47	18.71	0.92
0	26	0	0.01	0.04	-1.00	0.41	-0.60	-1.71
0	26	1	0.01	-0.08	-1.00	-0.15	-8.35	0.17
0	26	2	-0.00	-0.06	-1.00	0.47	-7.22	-1.71
0	26	3	0.01	-0.04	-1.00	0.22	-5.54	-0.83
0	26	4	0.02	-0.05	-1.00	-0.40	-6.22	1.29
0	26	5	0.02	-0.06	-1.00	-0.84	-10.79	1.86
0	26	6	0.01	-0.12	-1.00	-0.90	-13.91	2.79
0	26	7	0.03	-0.39	-1.00	-0.53	-19.22	0.17
0	26	8	0.11	-0.31	-1.00	-0.28	1.53	1.98
0	26	9	0.07	-0.21	-1.00	-1.03	5.71	-0.64
0	26	10	0.08	-0.14	-1.00	-3.40	9.46	0.54
0	26	11	0.04	-0.10	-1.00	2.53	13.21	12.11
0	26	12	0.04	-0.14	-1.00	1.91	25.21	5.42
0	26	13	-0.01	-0.18	-1.00	-2.78	35.65	-4.89
0	26	14	-0.00	-0.18	-1.01	-0.28	48.65	-7.64
0	26	15	0.07	-0.16	-1.00	-3.34	55.65	-7.08
0	26	16	0.07	-0.02	-1.00	-1.90	50.21	1.61
0	26	17	0.08	0.13	-1.00	0.66	48.96	0.17
0	26	18	0.01	0.23	-0.99	2.47	42.03	-3.14
0	26	19	-0.05	0.19	-1.00	3.97	29.21	1.61
0	26	20	-0.06	0.08	-1.00	-0.97	32.03	0.29
0	26	21	-0.02	0.09	-1.00	-0.09	31.71	-0.08
0	26	22	-0.03	0.25	-1.00	0.16	26.34	0.92
0	26	23	-0.01	0.34	-1.00	-0.03	3.15	-0.58
0	26	24	-0.05	0.34	-1.00	0.53	6.40	-0.39
0	26	25	-0.08	0.26	-1.00	-0.40	5.34	-0.64
0	26	26	-0.08	0.24	-1.00	0.22	-0.91	0.11
0	26	27	-0.05	0.23	-1.00	-0.65	-1.54	1.11
0	26	28	-0.05	0.14	-1.00	-0.22	-6.60	0.36
0	26	29	-0.05	0.23	-1.00	-1.90	-3.97	-1.02
0	26	30	-0.02	0.20	-1.00	-0.15	-7.41	0.36
0	26	31	-0.01	0.13	-1.00	-0.34	-9.97	-0.02
0	26	32	-0.01	0.13	-1.00	-1.53	-14.72	0.92
0	26	33	0.01	0.14	-1.00	-0.47	-23.72	-0.39
0	26	34	-0.00	0.15	-1.00	1.66	-18.47	-0.39
0	26	35	-0.01	0.12	-1.00	1.47	-28.16	-1.14
0	26	36	-0.01	0.11	-1.00	-0.15	-35.72	-0.08
0	26	37	0.00	0.10	-1.00	0.47	-40.16	0.67
0	26	38	0.02	0.07	-1.00	-0.72	-38.97	-0.27
0	26	39	0.01	0.02	-1.00	0.41	-40.16	1.42
0	26	40	0.06	0.02	-1.00	-1.15	-40.72	2.04
0	26	41	0.09	0.03	-1.00	-0.47	-74.54	-1.77
0	26	42	-0.07	-0.02	-1.00	-0.40	-59.66	-0.58
0	26	43	-0.06	-0.06	-1.00	0.28	-28.60	-0.33
0	26	44	-0.02	-0.06	-1.00	0.22	-4.72	0.73
0	26	45	-0.01	-0.04	-1.00	-0.15	18.59	0.86
0	26	46	0.00	-0.01	-1.00	0.72	45.90	-1.21
0	26	47	0.09	-0.19	-1.00	0.72	24.96	0.67
0	26	48	0.10	-0.19	-1.00	-0.59	-21.16	0.92
0	26	49	-0.03	-0.09	-1.00	-0.28	21.65	-1.21
0	27	0	0.00	-0.05	-1.00	-0.09	-3.47	-0.39
0	27	1	0.00	-0.06	-1.00	-0.03	-7.10	0.17
0	27	2	0.01	-0.06	-1.00	-0.15	-8.47	0.11
0	27	3	0.02	-0.11	-1.00	-0.22	-3.29	0.11
0	27	4	0.01	-0.22	-1.00	-0.09	-9.79	-0.71
0	27	5	0.04	-0.25	-1.00	-0.03	-15.85	-0.39
0	27	6	0.04	-0.23	-1.00	0.10	-5.35	-1.08
0	27	7	0.03	-0.20	-1.00	-0.40	-2.79	1.36
0	27	8	0.08	-0.19	-1.00	-0.65	8.78	2.11
0	27	9	0.04	-0.18	-1.00	-0.78	10.65	-0.89
0	27	10	-0.02	-0.19	-1.00	0.53	19.28	0.36
0	27	11	0.01	-0.22	-1.00	-0.03	28.65	-0.27
0	27	12	0.07	-0.17	-0.99	-1.84	47.40	-0.52
0	27	13	0.09	0.03	-1.00	0.28	49.53	1.11
0	27	14	0.06	0.10	-1.00	0.47	49.46	-2.27
0	27	15	0.01	0.07	-1.01	2.78	35.40	-8.33
0	27	16	-0.02	0.05	-0.98	0.60	30.15	0.17
0	27	17	-0.02	0.09	-1.01	0.60	22.96	-1.64
0	27	18	-0.00	0.16	-0.98	-1.03	24.90	4.04
0	27	19	-0.01	0.25	-1.01	-1.72	22.53	6.48
0	27	20	-0.01	0.30	-1.00	0.28	16.96	-1.89
0	27	21	-0.04	0.31	-1.00	-0.09	4.09	0.17
0	27	22	-0.06	0.28	-1.00	0.10	-6.97	0.61
0	27	23	-0.05	0.23	-1.00	-0.84	-15.22	1.98
0	27	24	-0.05	0.18	-1.00	0.10	-10.97	-0.08
0	27	25	-0.04	0.16	-1.00	-0.15	-11.41	0.67
0	27	26	-0.02	0.13	-1.00	-0.28	-11.60	-0.21
0	27	27	-0.04	0.14	-1.00	-0.34	-9.79	-0.02
0	27	28	-0.02	0.10	-1.00	-0.15	-11.16	0.42
0	27	29	-0.02	0.13	-1.00	-0.28	-9.54	-0.77
0	27	30	-0.01	0.09	-1.00	-0.22	-14.16	-0.27
0	27	31	-0.01	0.12	-1.00	-0.03	-12.85	-0.14
0	27	32	-0.02	0.15	-1.00	0.22	-14.35	-0.52
0	27	33	-0.03	0.18	-1.00	-0.34	-17.35	-0.58
0	27	34	-0.04	0.20	-1.00	-0.72	-23.41	0.73
0	27	35	0.00	0.12	-1.00	0.41	-27.66	-0.58
0	27	36	-0.00	0.06	-1.00	-0.90	-30.85	1.98
0	27	37	-0.00	0.03	-1.00	-0.03	-32.85	-1.14
0	27	38	0.02	0.02	-1.00	-0.09	-37.47	-0.08
0	27	39	0.03	-0.02	-1.00	-0.40	-35.41	0.17
0	27	40	0.03	-0.06	-1.00	0.22	-31.35	-0.46
0	27	41	0.00	-0.05	-1.01	-0.15	-25.04	0.11
0	27	42	0.00	-0.02	-0.99	-1.97	-25.10	-6.21
0	27	43	0.01	-0.05	-0.98	2.91	-26.35	0.54
0	27	44	0.00	-0.09	-1.01	1.28	-23.29	2.42
0	27	45	-0.01	-0.06	-1.00	-1.34	-17.79	0.73
0	27	46	0.00	-0.03	-1.00	-1.40	-17.22	3.86
0	27	47	0.03	-0.06	-1.00	0.10	-15.41	1.11
0	27	48	0.02	-0.06	-1.00	0.53	-17.85	1.17
0	27	49	-0.01	-0.07	-1.00	0.10	-12.91	-3.02
0	28	0	0.00	-0.02	-1.00	0.16	-1.47	-0.14
0	28	1	0.00	-0.03	-1.00	-0.15	-3.04	0.11
0	28	2	0.02	-0.07	-1.00	-0.47	-9.22	0.48
0	28	3	0.02	-0.13	-1.00	-0.03	-13.41	-0.39
0	28	4	0.02	-0.30	-1.00	-0.15	-11.10	-0.46
0	28	5	0.05	-0.44	-1.00	0.28	9.15	-1.02
0	28	6	0.10	-0.31	-1.00	-0.53	16.59	-0.27
0	28	7	0.05	-0.22	-1.00	-0.22	22.90	2.54
0	28	8	0.08	-0.24	-1.00	-0.03	23.46	1.48
0	28	9	0.04	-0.14	-1.00	2.85	23.09	5.79
0	28	10	0.02	-0.15	-1.00	-2.03	25.59	-6.64
0	28	11	0.03	-0.22	-0.99	-1.47	38.34	-3.27
0	28	12	0.12	-0.10	-1.01	0.53	56.28	-1.52
0	28	13	0.10	0.10	-1.00	-1.78	58.34	0.36
0	28	14	0.04	0.22	-0.99	0.66	50.46	-0.39
0	28	15	-0.04	0.23	-1.01	2.28	29.40	0.17
0	28	16	-0.02	-0.04	-1.00	-0.97	19.65	-0.89
0	28	17	0.02	0.00	-1.00	0.35	39.03	1.23
0	28	18	-0.04	0.34	-1.00	0.66	49.40	-0.08
0	28	19	-0.07	0.46	-1.00	0.10	17.03	0.67
0	28	20	-0.14	0.37	-1.00	-0.28	-21.10	0.61
0	28	21	-0.02	0.16	-1.00	-0.15	-29.91	-1.02
0	28	22	-0.03	0.16	-1.00	-0.28	-9.79	-0.02
0	28	23	-0.06	0.34	-1.00	-0.03	-3.54	0.17
0	28	24	-0.07	0.25	-1.00	-0.09	-4.85	0.04
0	28	25	-0.06	0.17	-1.00	-0.09	-16.10	1.23
0	28	26	-0.05	0.16	-1.00	0.16	-11.85	1.23
0	28	27	-0.04	0.16	-1.00	-0.72	-11.35	-1.89
0	28	28	-0.03	0.15	-1.00	0.16	-11.85	1.04
0	28	29	-0.02	0.18	-1.00	-0.03	-13.41	-0.27
0	28	30	-0.00	0.15	-1.00	-0.47	-19.54	-0.71
0	28	31	-0.01	0.12	-1.00	0.22	-22.41	0.36
0	28	32	-0.02	0.12	-1.00	-0.15	-27.79	-1.71
0	28	33	-0.01	0.11	-1.00	-0.53	-30.91	0.61
0	28	34	-0.00	0.11	-1.00	0.41	-34.22	-0.64
0	28	35	0.01	0.05	-1.00	0.35	-33.60	0.17
0	28	36	0.02	-0.01	-1.00	1.22	-31.41	-4.83
0	28	37	0.04	-0.07	-1.00	-0.84	-26.10	1.48
0	28	38	0.03	-0.03	-1.00	-0.97	-29.41	2.54
0	28	39	0.02	-0.02	-1.00	0.53	-29.35	-1.58
0	28	40	0.03	-0.05	-1.00	1.53	-30.22	-4.08
0	28	41	0.04	-0.13	-1.00	-0.78	-24.47	-3.58
0	28	42	-0.00	-0.09	-1.00	-2.84	-17.66	-0.71
0	28	43	-0.00	-0.08	-0.97	0.85	-16.04	5.23
0	28	44	0.03	-0.10	-1.02	-1.34	-13.60	7.67
0	28	45	0.02	-0.09	-1.00	-0.47	-6.91	-1.89
0	28	46	0.02	-0.14	-1.00	0.28	-9.91	-0.14
0	28	47	0.04	-0.15	-1.00	0.28	-2.22	1.98
0	28	48	0.02	-0.13	-1.00	0.41	16.53	-0.77
0	28	49	0.01	-0.11	-1.00	0.10	26.65	-1.08
0	29	0	0.00	-0.03	-1.00	0.22	-1.16	-0.83
0	29	1	0.02	-0.05	-1.00	0.22	0.46	-0.39
0	29	2	0.01	-0.05	-1.00	-0.03	0.28	-0.08
0	29	3	0.01	-0.07	-1.00	0.10	-1.16	-0.21
0	29	4	0.03	-0.20	-1.00	-0.28	-9.22	1.17
0	29	5	0.01	-0.28	-1.00	-1.15	0.59	2.92
0	29	6	0.09	-0.45	-1.01	-0.90	12.96	0.48
0	29	7	0.10	-0.25	-1.00	-0.22	27.59	-0.46
0	29	8	0.04	-0.18	-1.00	0.72	23.34	1.36
0	29	9	0.02	-0.12	-1.00	-0.09	22.65	-0.96
0	29	10	-0.02	-0.06	-1.00	-1.15	24.84	0.11
0	29	11	-0.01	-0.18	-1.00	0.16	30.09	0.73
0	29	12	0.04	-0.18	-1.00	0.28	46.28	-3.02
0	29	13	0.04	0.02	-1.00	0.03	50.46	0.92
0	29	14	0.02	0.16	-1.00	-0.72	37.53	0.23
0	29	15	0.00	0.17	-1.00	-0.40	23.40	-0.52
0	29	16	0.01	0.02	-1.00	0.35	23.28	0.61
0	29	17	-0.03	-0.03	-1.00	0.78	25.28	-0.33
0	29	18	-0.04	0.06	-1.00	0.16	31.46	-1.02
0	29	19	0.03	0.10	-1.00	0.72	25.90	-0.46
0	29	20	0.05	0.25	-1.00	-0.59	20.59	-0.83
0	29	21	-0.02	0.35	-1.00	0.22	19.78	0.04
0	29	22	-0.06	0.32	-1.00	0.60	12.15	1.54
0	29	23	-0.06	0.31	-1.00	0.16	3.84	-0.71
0	29	24	-0.04	0.20	-1.00	0.47	1.09	-1.71
0	29	25	-0.01	0.16	-1.00	-0.47	1.84	1.23
0	29	26	-0.01	0.10	-1.00	-0.84	-1.66	2.04
0	29	27	-0.00	0.09	-1.00	-4.72	-1.54	-0.21
0	29	28	-0.04	0.28	-1.00	-1.72	-7.16	0.23
0	29	29	0.00	0.21	-1.00	0.72	-13.72	0.61
0	29	30	-0.03	0.34	-1.00	1.66	-8.97	-2.08
0	29	31	-0.01	0.21	-1.01	2.91	-22.41	-1.02
0	29	32	-0.04	0.16	-1.00	4.47	-19.85	1.23
0	29	33	-0.03	0.19	-0.98	1.66	-26.72	0.29
0	29	34	-0.05	0.20	-1.00	-5.09	-30.60	-2.83
0	29	35	-0.01	0.09	-1.01	-1.22	-39.97	-0.02
0	29	36	0.01	0.01	-1.00	-0.90	-46.60	2.98
0	29	37	0.05	-0.06	-1.00	-0.09	-47.16	-0.71
0	29	38	-0.01	-0.03	-1.00	-0.78	-38.66	0.36
0	29	39	0.03	-0.07	-1.00	-0.22	-37.10	0.48
0	29	40	0.05	-0.09	-1.00	-0.53	-21.10	0.17
0	29	41	-0.01	-0.02	-1.00	0.03	-27.66	-0.33
0	29	42	-0.01	-0.03	-1.00	-0.03	-29.22	2.04
0	29	43	0.02	-0.05	-1.00	-0.53	-28.10	-0.46
0	29	44	0.04	-0.08	-1.00	0.47	-30.54	-1.52
0	29	45	0.02	-0.06	-1.00	0.66	-22.91	1.11
0	29	46	0.01	-0.08	-1.00	-0.34	-23.72	-0.83
0	29	47	0.03	-0.14	-1.00	-0.47	-24.85	-0.21
0	29	48	0.03	-0.15	-1.00	0.10	-16.60	0.11
0	29	49	0.06	-0.17	-1.00	0.03	-12.60	2.36
1	0	0	-0.09	-0.01	-1.15	21.78	-17.04	-41.77
1	0	1	-0.17	0.01	-1.29	21.72	-17.29	-43.71
1	0	2	-0.17	-0.06	-1.33	-3.40	-20.85	-69.89
1	0	3	-0.13	-0.06	-1.28	3.10	-27.35	-88.83
1	0	4	-0.15	-0.04	-1.31	24.03	-19.79	-93.27
1	0	5	-0.19	-0.01	-1.32	9.22	-15.72	-109.96
1	0	6	-0.24	-0.01	-1.24	3.47	-12.41	-119.89
1	0	7	-0.29	0.00	-1.35	26.28	-9.72	-127.52
1	0	8	-0.26	0.01	-1.06	23.66	-15.79	-140.39
1	0	9	-0.32	0.02	-1.01	55.41	-25.60	-120.64
1	0	10	-0.38	-0.01	-1.12	60.66	-22.41	-126.96
1	0	11	-0.39	-0.05	-0.91	34.35	-11.10	-139.21
1	0	12	-0.42	-0.09	-0.82	45.78	-17.41	-125.96
1	0	13	-0.44	-0.06	-0.76	48.03	-14.79	-118.83
1	0	14	-0.48	-0.03	-0.74	34.97	-8.72	-114.89
1	0	15	-0.50	-0.12	-0.69	22.41	-11.72	-118.02
1	0	16	-0.52	-0.09	-0.63	32.53	-11.54	-105.39
1	0	17	-0.55	-0.13	-0.66	23.72	-9.04	-101.21
1	0	18	-0.60	-0.14	-0.64	21.60	-8.97	-101.02
1	0	19	-0.58	-0.18	-0.46	27.66	-10.47	-92.77
1	0	20	-0.63	-0.13	-0.40	39.47	-14.29	-72.02
1	0	21	-0.62	-0.16	-0.34	32.97	-15.60	-60.89
1	0	22	-0.65	-0.17	-0.31	23.47	-10.29	-44.64
1	0	23	-0.66	-0.19	-0.31	13.66	-8.91	-32.96
1	0	24	-0.67	-0.20	-0.29	4.35	-8.22	-26.52
1	0	25	-0.68	-0.17	-0.26	1.66	-7.16	-13.52
1	0	26	-0.68	-0.21	-0.30	0.35	-7.60	-5.77
1	0	27	-0.68	-0.22	-0.25	-5.59	-6.66	1.11
1	0	28	-0.67	-0.22	-0.24	-7.47	-3.35	17.42
1	0	29	-0.69	-0.25	-0.33	-15.03	-1.41	28.36
1	0	30	-0.67	-0.29	-0.36	-18.78	-3.22	34.36
1	0	31	-0.66	-0.25	-0.39	-12.84	-2.79	45.17
1	0	32	-0.67	-0.25	-0.51	-16.72	-1.47	53.36
1	0	33	-0.67	-0.22	-0.49	-18.97	-0.66	57.36
1	0	34	-0.68	-0.20	-0.53	-17.34	-0.54	68.86
1	0	35	-0.65	-0.21	-0.54	-21.84	1.78	73.11
1	0	36	-0.62	-0.16	-0.55	-28.72	4.34	78.61
1	0	37	-0.57	-0.17	-0.57	-45.40	-1.16	75.86
1	0	38	-0.52	-0.16	-0.58	-34.03	-5.60	91.48
1	0	39	-0.52	-0.20	-0.73	-35.97	-2.60	97.73
1	0	40	-0.48	-0.17	-0.74	-32.03	2.21	95.86
1	0	41	-0.51	-0.12	-0.91	-32.90	8.40	92.67
1	0	42	-0.49	-0.11	-0.96	-39.78	10.78	78.42
1	0	43	-0.48	-0.11	-0.95	-28.22	11.28	75.29
1	0	44	-0.48	-0.12	-0.99	-10.53	0.53	78.29
1	0	45	-0.43	-0.18	-1.02	-2.84	-2.85	81.23
1	0	46	-0.46	-0.11	-1.13	-16.78	5.78	72.79
1	0	47	-0.44	-0.09	-1.07	-41.47	12.53	51.92
1	0	48	-0.38	-0.09	-0.89	-46.47	21.53	43.98
1	0	49	-0.33	-0.12	-0.77	-31.97	21.15	62.92
1	1	0	-0.04	-0.08	-1.32	-11.15	5.28	-54.52
1	1	1	-0.07	-0.11	-1.37	17.91	0.34	-62.52
1	1	2	-0.08	-0.08	-1.32	37.66	-0.79	-71.08
1	1	3	-0.10	-0.08	-1.41	44.22	0.90	-73.02
1	1	4	-0.13	-0.11	-1.53	16.66	-1.22	-102.08
1	1	5	-0.11	-0.18	-1.41	4.53	-9.16	-139.21
1	1	6	-0.12	-0.11	-1.31	41.03	-7.85	-135.27
1	1	7	-0.19	-0.05	-1.28	60.97	-3.29	-131.27
1	1	8	-0.20	-0.04	-1.13	60.41	-0.54	-123.02
1	1	9	-0.24	-0.01	-1.02	64.35	9.28	-136.08
1	1	10	-0.29	-0.05	-1.01	49.10	8.84	-151.71
1	1	11	-0.29	-0.10	-0.86	39.53	2.09	-158.52
1	1	12	-0.33	-0.05	-0.56	51.16	-4.04	-142.96
1	1	13	-0.41	-0.02	-0.66	77.22	-12.85	-125.64
1	1	14	-0.43	-0.06	-0.65	55.91	-3.91	-133.14
1	1	15	-0.45	-0.12	-0.45	41.72	-0.66	-129.14
1	1	16	-0.46	-0.22	-0.37	40.03	-2.72	-103.83
1	1	17	-0.54	-0.21	-0.42	27.78	-2.79	-90.02
1	1	18	-0.56	-0.21	-0.37	22.10	-5.60	-81.08
1	1	19	-0.57	-0.22	-0.31	24.85	-2.91	-68.46
1	1	20	-0.61	-0.24	-0.33	26.72	3.53	-53.77
1	1	21	-0.64	-0.25	-0.29	9.22	5.84	-44.83
1	1	22	-0.67	-0.28	-0.27	2.53	2.84	-26.83
1	1	23	-0.71	-0.26	-0.37	2.66	-0.16	-12.08
1	1	24	-0.73	-0.25	-0.31	-6.03	-1.97	-13.39
1	1	25	-0.72	-0.24	-0.20	-6.28	-0.97	2.61
1	1	26	-0.73	-0.26	-0.30	-1.72	-2.10	28.48
1	1	27	-0.75	-0.28	-0.48	-12.09	1.03	32.48
1	1	28	-0.74	-0.28	-0.49	-13.97	-0.04	27.48
1	1	29	-0.74	-0.29	-0.48	-8.97	-2.04	28.17
1	1	30	-0.74	-0.25	-0.50	-22.15	-1.16	29.11
1	1	31	-0.74	-0.26	-0.54	-23.22	-1.04	35.04
1	1	32	-0.72	-0.26	-0.53	-19.47	-0.97	38.73
1	1	33	-0.68	-0.27	-0.49	-16.90	-3.47	44.54
1	1	34	-0.62	-0.27	-0.44	-18.84	-5.29	51.98
1	1	35	-0.57	-0.29	-0.43	-19.22	-5.72	62.36
1	1	36	-0.54	-0.21	-0.41	-22.22	-5.60	75.11
1	1	37	-0.54	-0.17	-0.53	-43.72	-2.79	81.61
1	1	38	-0.49	-0.18	-0.53	-55.59	-5.85	83.04
1	1	39	-0.45	-0.19	-0.62	-43.15	-8.16	100.86
1	1	40	-0.44	-0.17	-0.76	-26.47	-6.29	112.04
1	1	41	-0.41	-0.15	-0.87	-27.84	-6.16	111.98
1	1	42	-0.42	-0.13	-0.92	-41.84	-4.29	106.54
1	1	43	-0.38	-0.13	-0.96	-36.03	-6.04	109.54
1	1	44	-0.38	-0.11	-1.06	-29.40	-9.22	110.54
1	1	45	-0.34	-0.10	-1.12	-26.53	-8.04	104.11
1	1	46	-0.35	-0.10	-1.17	-36.40	1.71	76.17
1	1	47	-0.34	-0.07	-1.23	-38.65	-0.22	66.98
1	1	48	-0.30	-0.13	-1.19	-25.28	-5.35	58.67
1	1	49	-0.26	-0.18	-1.13	-23.84	-1.97	59.73
1	2	0	-0.13	-0.13	-1.49	25.97	1.15	-73.83
1	2	1	-0.08	-0.12	-1.40	44.03	0.65	-97.46
1	2	2	-0.11	-0.07	-1.32	46.78	8.71	-110.71
1	2	3	-0.14	-0.08	-1.29	36.47	4.21	-118.02
1	2	4	-0.15	-0.10	-1.16	18.47	2.46	-122.71
1	2	5	-0.23	-0.16	-1.14	36.16	-1.10	-112.02
1	2	6	-0.26	-0.13	-1.22	53.53	1.53	-107.02
1	2	7	-0.28	-0.09	-1.15	48.35	11.65	-132.46
1	2	8	-0.33	-0.04	-1.01	50.10	14.09	-133.14
1	2	9	-0.35	-0.06	-0.88	58.91	7.46	-129.64
1	2	10	-0.40	-0.08	-0.86	41.85	3.90	-120.89
1	2	11	-0.40	-0.11	-0.84	43.47	1.46	-115.58
1	2	12	-0.47	-0.11	-0.90	54.60	4.21	-116.21
1	2	13	-0.47	-0.14	-0.81	60.41	1.96	-128.02
1	2	14	-0.49	-0.13	-0.64	59.85	4.53	-122.52
1	2	15	-0.52	-0.14	-0.50	60.35	3.96	-106.02
1	2	16	-0.57	-0.14	-0.45	50.60	-2.35	-94.71
1	2	17	-0.58	-0.19	-0.40	35.66	-6.79	-91.46
1	2	18	-0.58	-0.24	-0.27	33.53	-7.72	-82.83
1	2	19	-0.59	-0.24	-0.19	31.16	-4.29	-64.77
1	2	20	-0.63	-0.28	-0.23	27.16	-3.79	-48.08
1	2	21	-0.64	-0.28	-0.15	23.60	-5.79	-29.21
1	2	22	-0.67	-0.28	-0.20	24.35	-7.10	-8.08
1	2	23	-0.69	-0.29	-0.25	7.41	-3.60	-1.71
1	2	24	-0.69	-0.32	-0.28	0.47	-5.79	2.67
1	2	25	-0.69	-0.33	-0.32	-4.84	-4.47	10.54
1	2	26	-0.71	-0.32	-0.38	-13.97	-0.16	14.17
1	2	27	-0.74	-0.30	-0.44	-18.90	0.90	20.23
1	2	28	-0.74	-0.31	-0.51	-11.40	0.34	27.17
1	2	29	-0.77	-0.32	-0.62	-6.59	3.65	29.11
1	2	30	-0.77	-0.33	-0.65	-10.65	3.96	23.73
1	2	31	-0.79	-0.32	-0.68	-7.03	1.84	21.61
1	2	32	-0.78	-0.32	-0.64	-6.53	0.46	15.17
1	2	33	-0.78	-0.30	-0.57	-5.28	0.59	16.98
1	2	34	-0.76	-0.33	-0.57	-6.90	-0.79	16.29
1	2	35	-0.73	-0.33	-0.49	-11.97	0.53	12.98
1	2	36	-0.71	-0.30	-0.44	-9.84	-0.85	20.48
1	2	37	-0.69	-0.29	-0.41	-12.40	-4.22	29.23
1	2	38	-0.67	-0.27	-0.52	-20.65	-5.54	39.17
1	2	39	-0.65	-0.28	-0.56	-34.34	-6.66	27.04
1	2	40	-0.60	-0.26	-0.41	-32.28	-6.35	32.73
1	2	41	-0.59	-0.26	-0.46	-24.47	-7.47	53.67
1	2	42	-0.57	-0.24	-0.54	-29.34	-7.85	67.98
1	2	43	-0.59	-0.22	-0.72	-45.53	-8.47	70.17
1	2	44	-0.55	-0.27	-0.72	-48.40	-7.54	64.48
1	2	45	-0.53	-0.25	-0.71	-33.40	-3.60	75.79
1	2	46	-0.53	-0.20	-0.70	-20.47	-4.22	83.29
1	2	47	-0.50	-0.16	-0.72	-23.59	-2.66	92.92
1	2	48	-0.54	-0.17	-1.01	-31.72	-2.66	92.42
1	2	49	-0.48	-0.23	-0.93	-35.72	0.78	62.86
1	3	0	0.00	-0.00	-1.00	-0.15	-1.91	0.04
1	3	1	-0.00	-0.00	-1.00	0.03	-0.35	-0.02
1	3	2	-0.01	0.00	-1.00	-0.03	-1.04	-0.02
1	3	3	-0.02	0.00	-1.00	-0.15	-6.16	-0.08
1	3	4	-0.04	0.00	-1.02	2.22	-11.41	-0.02
1	3	5	-0.09	0.00	-1.30	48.35	-23.97	-4.27
1	3	6	-0.13	-0.01	-1.75	24.35	-17.66	-54.21
1	3	7	0.01	-0.08	-1.71	-49.78	9.28	-141.21
1	3	8	-0.05	-0.14	-1.60	30.41	4.59	-138.39
1	3	9	-0.07	-0.07	-1.52	94.22	-14.10	-136.14
1	3	10	-0.18	-0.03	-1.64	70.10	-7.10	-157.96
1	3	11	-0.08	-0.12	-1.35	47.47	-13.35	-186.52
1	3	12	-0.14	-0.07	-1.11	49.03	-4.72	-171.58
1	3	13	-0.27	-0.13	-1.02	37.41	-3.29	-159.08
1	3	14	-0.35	-0.06	-1.01	30.60	1.09	-150.64
1	3	15	-0.35	-0.07	-0.91	39.72	0.78	-155.58
1	3	16	-0.38	-0.05	-0.70	37.97	-2.47	-149.33
1	3	17	-0.42	-0.03	-0.60	51.66	-14.04	-126.21
1	3	18	-0.49	-0.03	-0.70	73.22	-16.66	-115.27
1	3	19	-0.50	-0.06	-0.60	50.60	-14.29	-123.46
1	3	20	-0.53	-0.11	-0.60	39.41	-12.41	-118.83
1	3	21	-0.54	-0.20	-0.59	29.78	-13.41	-118.33
1	3	22	-0.55	-0.21	-0.47	40.10	-13.91	-105.02
1	3	23	-0.60	-0.19	-0.47	51.78	-16.41	-91.33
1	3	24	-0.62	-0.23	-0.46	50.72	-15.72	-91.52
1	3	25	-0.65	-0.23	-0.38	40.35	-11.16	-86.58
1	3	26	-0.67	-0.27	-0.34	17.41	-8.85	-86.39
1	3	27	-0.67	-0.30	-0.24	15.41	-8.91	-75.83
1	3	28	-0.68	-0.31	-0.18	15.22	-10.10	-53.64
1	3	29	-0.72	-0.32	-0.25	30.22	-15.16	-34.89
1	3	30	-0.74	-0.31	-0.25	28.78	-12.29	-27.33
1	3	31	-0.77	-0.31	-0.28	9.03	-4.91	-31.64
1	3	32	-0.75	-0.34	-0.15	3.47	-1.22	-29.33
1	3	33	-0.76	-0.35	-0.09	10.85	-4.60	-9.33
1	3	34	-0.76	-0.35	-0.10	9.97	-6.41	8.36
1	3	35	-0.76	-0.42	-0.20	-5.47	-3.91	12.23
1	3	36	-0.73	-0.44	-0.15	-1.59	1.28	18.17
1	3	37	-0.76	-0.38	-0.18	-6.90	7.03	26.79
1	3	38	-0.74	-0.38	-0.18	-13.59	10.90	34.54
1	3	39	-0.73	-0.35	-0.22	-21.90	9.96	45.48
1	3	40	-0.74	-0.35	-0.31	-29.15	10.15	52.98
1	3	41	-0.72	-0.34	-0.35	-27.84	7.34	54.79
1	3	42	-0.71	-0.30	-0.35	-26.78	5.28	61.48
1	3	43	-0.67	-0.29	-0.31	-27.78	5.09	71.86
1	3	44	-0.63	-0.27	-0.27	-33.09	6.15	83.04
1	3	45	-0.57	-0.24	-0.28	-41.78	8.46	102.86
1	3	46	-0.60	-0.22	-0.61	-39.90	7.40	118.92
1	3	47	-0.58	-0.22	-0.72	-43.28	7.09	109.73
1	3	48	-0.58	-0.15	-0.67	-45.47	7.59	104.98
1	3	49	-0.54	-0.19	-0.71	-39.15	4.15	111.23
1	4	0	-0.01	0.01	-1.01	1.16	0.90	0.98
1	4	1	-0.03	-0.01	-1.06	19.53	-4.85	1.79
1	4	2	-0.04	-0.01	-1.13	41.16	-8.54	-4.21
1	4	3	-0.09	-0.06	-1.42	18.16	-10.16	-30.58
1	4	4	-0.06	-0.04	-1.47	-20.40	-5.16	-74.77
1	4	5	-0.05	-0.12	-1.60	16.28	4.03	-92.21
1	4	6	-0.09	-0.12	-1.63	26.35	17.03	-136.64
1	4	7	-0.09	-0.07	-1.60	53.72	8.28	-148.46
1	4	8	-0.17	-0.07	-1.72	64.47	-4.22	-183.02
1	4	9	-0.08	-0.18	-1.34	51.10	1.90	-213.64
1	4	10	-0.19	-0.05	-0.97	40.41	0.09	-182.46
1	4	11	-0.26	-0.07	-0.98	45.16	-1.60	-155.27
1	4	12	-0.34	-0.12	-0.99	35.91	6.96	-166.77
1	4	13	-0.36	-0.08	-0.69	39.91	0.71	-158.08
1	4	14	-0.41	-0.05	-0.69	62.85	-6.72	-128.33
1	4	15	-0.48	-0.07	-0.80	63.72	-7.79	-119.83
1	4	16	-0.53	-0.04	-0.78	55.03	-11.16	-133.96
1	4	17	-0.48	-0.11	-0.60	43.35	-5.79	-133.64
1	4	18	-0.54	-0.12	-0.57	35.22	-2.54	-121.64
1	4	19	-0.57	-0.13	-0.54	35.60	-3.79	-110.77
1	4	20	-0.63	-0.16	-0.60	36.60	-6.54	-104.02
1	4	21	-0.62	-0.20	-0.45	35.60	-6.35	-106.83
1	4	22	-0.66	-0.19	-0.40	36.03	-7.97	-94.71
1	4	23	-0.70	-0.22	-0.47	32.78	-9.41	-97.14
1	4	24	-0.66	-0.26	-0.24	19.91	-5.41	-101.46
1	4	25	-0.69	-0.26	-0.15	20.41	-8.35	-80.96
1	4	26	-0.70	-0.26	-0.07	19.03	-12.22	-64.21
1	4	27	-0.71	-0.27	-0.01	16.16	-12.10	-41.96
1	4	28	-0.71	-0.27	0.06	20.41	-11.66	-17.89
1	4	29	-0.75	-0.27	0.00	5.16	-8.91	-2.83
1	4	30	-0.72	-0.30	0.06	-14.28	-6.47	3.73
1	4	31	-0.71	-0.33	0.06	-19.72	-5.91	20.17
1	4	32	-0.70	-0.34	-0.06	-23.65	-5.10	29.98
1	4	33	-0.66	-0.34	-0.05	-26.09	-3.16	40.54
1	4	34	-0.68	-0.34	-0.17	-24.34	0.03	66.23
1	4	35	-0.68	-0.33	-0.21	-31.53	1.09	80.36
1	4	36	-0.64	-0.30	-0.22	-44.65	3.78	99.23
1	4	37	-0.66	-0.25	-0.48	-58.59	5.71	110.92
1	4	38	-0.61	-0.22	-0.53	-54.59	10.71	109.29
1	4	39	-0.63	-0.09	-0.49	-47.90	10.28	114.67
1	4	40	-0.56	-0.15	-0.44	-51.28	1.40	120.61
1	4	41	-0.49	-0.18	-0.57	-37.90	-3.60	147.29
1	4	42	-0.53	-0.18	-0.84	-47.97	-1.41	139.98
1	4	43	-0.49	-0.18	-0.84	-53.15	7.21	121.48
1	4	44	-0.48	-0.12	-0.79	-31.84	2.90	125.23
1	4	45	-0.43	-0.06	-0.86	-22.47	-2.04	139.79
1	4	46	-0.47	-0.09	-1.19	-32.03	-2.22	127.61
1	4	47	-0.42	-0.17	-1.19	-41.59	1.34	91.86
1	4	48	-0.38	-0.13	-1.00	-32.34	7.15	85.79
1	4	49	-0.37	-0.11	-1.00	-24.90	9.40	88.11
1	5	0	-0.04	0.00	-1.16	44.28	-12.04	-3.33
1	5	1	-0.06	-0.00	-1.31	36.60	-6.66	-23.39
1	5	2	-0.03	-0.04	-1.39	-18.34	1.59	-61.71
1	5	3	0.02	-0.13	-1.39	9.28	1.09	-72.58
1	5	4	-0.03	-0.11	-1.50	33.53	8.59	-80.14
1	5	5	-0.08	-0.07	-1.43	32.35	11.96	-99.02
1	5	6	-0.08	-0.15	-1.48	44.72	6.46	-110.46
1	5	7	-0.09	-0.09	-1.41	36.66	11.96	-131.52
1	5	8	-0.09	-0.13	-1.30	36.60	3.21	-141.89
1	5	9	-0.13	-0.11	-1.19	40.28	0.46	-138.46
1	5	10	-0.19	-0.06	-1.07	43.28	5.34	-139.71
1	5	11	-0.27	-0.04	-1.12	28.91	23.59	-142.64
1	5	12	-0.30	-0.06	-1.00	19.35	17.34	-161.39
1	5	13	-0.31	-0.09	-0.80	32.85	11.28	-155.96
1	5	14	-0.37	-0.04	-0.69	47.16	8.21	-143.46
1	5	15	-0.45	-0.03	-0.73	41.97	1.28	-141.21
1	5	16	-0.47	-0.08	-0.72	32.97	-3.22	-155.02
1	5	17	-0.49	-0.06	-0.56	32.91	0.34	-149.39
1	5	18	-0.53	-0.04	-0.45	30.22	-1.41	-133.39
1	5	19	-0.56	-0.11	-0.40	36.97	-8.35	-113.83
1	5	20	-0.60	-0.13	-0.37	40.10	-12.22	-101.89
1	5	21	-0.62	-0.18	-0.34	32.10	-12.04	-96.21
1	5	22	-0.61	-0.27	-0.18	22.35	-9.85	-87.02
1	5	23	-0.65	-0.20	-0.05	25.66	-8.97	-53.52
1	5	24	-0.71	-0.22	-0.13	19.22	-9.22	-26.83
1	5	25	-0.76	-0.25	-0.22	5.10	-5.10	-13.89
1	5	26	-0.78	-0.26	-0.17	-4.59	-4.04	-4.83
1	5	27	-0.79	-0.27	-0.17	-5.03	-4.22	8.67
1	5	28	-0.80	-0.30	-0.22	-7.03	-2.60	16.42
1	5	29	-0.78	-0.32	-0.19	-2.34	-2.41	25.61
1	5	30	-0.78	-0.29	-0.25	-5.53	-4.16	37.23
1	5	31	-0.78	-0.28	-0.32	-11.97	-2.10	42.79
1	5	32	-0.78	-0.24	-0.37	-19.47	1.71	49.11
1	5	33	-0.77	-0.25	-0.42	-26.03	0.03	53.29
1	5	34	-0.71	-0.31	-0.44	-20.78	0.96	59.23
1	5	35	-0.70	-0.29	-0.46	-20.09	4.28	62.48
1	5	36	-0.66	-0.27	-0.37	-19.09	2.28	64.79
1	5	37	-0.61	-0.23	-0.39	-27.40	1.90	84.54
1	5	38	-0.61	-0.20	-0.54	-41.78	2.34	93.98
1	5	39	-0.57	-0.17	-0.47	-39.78	1.09	102.36
1	5	40	-0.51	-0.03	-0.51	-36.15	-1.79	132.61
1	5	41	-0.56	-0.02	-0.86	-45.90	2.21	139.61
1	5	42	-0.46	-0.14	-0.86	-53.72	13.53	123.98
1	5	43	-0.42	-0.20	-0.78	-33.03	10.71	132.54
1	5	44	-0.34	-0.12	-0.77	-15.97	1.90	146.92
1	5	45	-0.41	0.04	-1.10	-16.28	-6.79	141.29
1	5	46	-0.37	-0.04	-1.21	-45.15	-8.41	105.36
1	5	47	-0.31	-0.10	-1.13	-52.53	12.15	70.36
1	5	48	-0.30	-0.06	-1.01	-35.03	-0.10	48.48
1	5	49	-0.24	-0.06	-0.93	-23.90	-8.35	82.17
1	6	0	-0.01	0.01	-1.00	-0.22	-0.54	-0.14
1	6	1	-0.02	0.01	-1.00	-0.15	-4.60	-0.08
1	6	2	-0.03	0.01	-1.00	-0.34	-12.10	0.23
1	6	3	-0.05	0.04	-1.10	-14.03	-18.47	2.29
1	6	4	-0.06	-0.01	-1.54	-28.03	-15.85	-13.46
1	6	5	-0.05	0.03	-1.77	-31.40	9.21	-72.33
1	6	6	0.06	-0.09	-1.53	-13.84	6.65	-124.14
1	6	7	0.03	-0.03	-1.33	64.41	4.40	-114.71
1	6	8	-0.07	0.06	-1.33	82.16	5.71	-108.96
1	6	9	-0.07	0.01	-1.25	45.28	6.53	-118.89
1	6	10	-0.11	-0.06	-1.29	29.03	9.84	-120.96
1	6	11	-0.17	-0.03	-1.32	45.53	7.59	-132.83
1	6	12	-0.15	-0.02	-1.14	40.10	10.53	-150.33
1	6	13	-0.21	0.06	-1.07	37.22	6.09	-135.64
1	6	14	-0.26	0.03	-1.02	39.35	3.09	-156.96
1	6	15	-0.29	-0.05	-0.96	30.10	5.65	-173.64
1	6	16	-0.33	-0.05	-0.85	22.72	-0.47	-178.21
1	6	17	-0.32	-0.07	-0.62	14.60	-5.47	-168.83
1	6	18	-0.48	0.00	-0.80	48.60	-18.91	-155.27
1	6	19	-0.52	0.05	-0.82	34.97	-19.04	-174.27
1	6	20	-0.52	-0.03	-0.70	21.60	-25.16	-189.96
1	6	21	-0.52	-0.20	-0.54	31.28	-15.85	-177.33
1	6	22	-0.65	-0.06	-0.43	46.41	-20.66	-156.64
1	6	23	-0.65	-0.10	-0.23	35.35	-32.35	-143.33
1	6	24	-0.69	-0.18	-0.25	35.03	-31.22	-122.08
1	6	25	-0.74	-0.20	-0.21	17.41	-35.66	-121.52
1	6	26	-0.64	-0.41	0.17	24.85	-25.79	-99.83
1	6	27	-0.72	-0.31	0.19	52.28	-15.79	-46.21
1	6	28	-0.75	-0.30	0.18	27.72	-15.97	-23.08
1	6	29	-0.74	-0.34	0.25	-1.53	-10.60	-2.89
1	6	30	-0.74	-0.30	0.19	-12.84	-7.16	19.29
1	6	31	-0.73	-0.34	0.13	-21.34	-2.91	27.54
1	6	32	-0.72	-0.34	0.13	-18.28	1.03	43.11
1	6	33	-0.75	-0.30	0.01	-21.59	2.46	62.79
1	6	34	-0.79	-0.25	-0.13	-33.59	8.28	76.98
1	6	35	-0.79	-0.25	-0.27	-45.22	9.28	86.42
1	6	36	-0.76	-0.24	-0.27	-62.28	12.96	86.42
1	6	37	-0.70	-0.21	-0.24	-71.28	17.09	98.67
1	6	38	-0.65	-0.17	-0.31	-60.09	16.96	123.67
1	6	39	-0.68	-0.10	-0.60	-52.09	8.84	143.61
1	6	40	-0.65	-0.15	-0.74	-44.78	0.53	131.79
1	6	41	-0.54	-0.25	-0.58	-34.40	7.46	124.29
1	6	42	-0.46	-0.16	-0.49	-4.40	2.09	153.48
1	6	43	-0.52	0.01	-0.84	-8.97	0.90	176.73
1	6	44	-0.51	0.01	-1.04	-52.72	-2.10	152.92
1	6	45	-0.47	-0.09	-1.13	-77.03	6.84	123.23
1	6	46	-0.38	-0.16	-1.08	-45.28	9.09	105.54
1	6	47	-0.36	-0.09	-0.99	-20.28	14.90	103.04
1	6	48	-0.37	-0.05	-0.93	-11.09	17.09	88.11
1	6	49	-0.27	0.05	-0.82	-8.15	3.53	127.29
1	7	0	-0.01	0.00	-1.00	-0.09	0.34	-0.02
1	7	1	-0.00	-0.00	-1.00	-0.03	-0.85	-0.08
1	7	2	-0.00	0.01	-1.00	-0.09	-0.72	-0.08
1	7	3	-0.01	0.01	-1.00	-0.09	-1.10	-0.21
1	7	4	-0.02	0.01	-1.02	-1.72	-9.16	0.54
1	7	5	-0.03	0.06	-1.29	48.91	-21.41	12.86
1	7	6	-0.07	-0.04	-1.59	63.72	-18.04	-25.14
1	7	7	0.01	-0.05	-1.49	-23.09	12.09	-95.14
1	7	8	0.02	-0.08	-1.41	14.85	21.03	-103.08
1	7	9	-0.01	-0.12	-1.32	49.03	21.03	-115.64
1	7	10	-0.08	-0.07	-1.32	57.16	15.15	-118.89
1	7	11	-0.11	-0.05	-1.32	35.60	16.71	-142.27
1	7	12	-0.13	-0.00	-1.17	24.53	16.34	-150.64
1	7	13	-0.22	-0.01	-1.22	25.28	7.53	-144.46
1	7	14	-0.24	-0.06	-1.20	17.47	-5.60	-152.02
1	7	15	-0.23	-0.12	-1.06	26.03	1.15	-162.89
1	7	16	-0.32	-0.06	-1.03	33.10	-0.41	-164.21
1	7	17	-0.32	-0.09	-0.85	27.78	-3.72	-170.08
1	7	18	-0.40	-0.03	-0.82	24.60	-4.04	-155.21
1	7	19	-0.50	-0.01	-1.02	25.28	-9.04	-158.08
1	7	20	-0.51	-0.03	-0.98	35.97	-19.10	-179.52
1	7	21	-0.48	-0.14	-0.67	49.60	-29.47	-189.39
1	7	22	-0.51	-0.19	-0.48	61.16	-21.66	-148.77
1	7	23	-0.65	-0.09	-0.66	58.66	-17.72	-151.64
1	7	24	-0.62	-0.17	-0.46	29.97	-17.54	-160.64
1	7	25	-0.64	-0.16	-0.29	39.53	-28.22	-141.21
1	7	26	-0.64	-0.27	-0.13	40.78	-32.41	-128.52
1	7	27	-0.65	-0.27	-0.07	54.03	-26.60	-102.46
1	7	28	-0.66	-0.31	0.03	39.22	-24.10	-90.52
1	7	29	-0.67	-0.35	0.19	33.22	-18.91	-63.08
1	7	30	-0.70	-0.37	0.21	26.03	-11.72	-33.02
1	7	31	-0.75	-0.37	0.17	15.85	-4.29	-9.52
1	7	32	-0.78	-0.35	0.13	3.16	-2.79	3.92
1	7	33	-0.77	-0.39	0.06	-1.22	-2.41	20.11
1	7	34	-0.79	-0.36	0.06	-5.22	-0.85	27.61
1	7	35	-0.79	-0.37	0.06	-5.53	2.53	46.17
1	7	36	-0.82	-0.33	-0.09	-9.47	3.59	59.98
1	7	37	-0.86	-0.28	-0.32	-26.40	4.21	60.17
1	7	38	-0.84	-0.31	-0.32	-34.53	6.78	47.54
1	7	39	-0.81	-0.33	-0.23	-29.09	7.34	48.67
1	7	40	-0.77	-0.32	-0.16	-42.97	7.40	58.36
1	7	41	-0.71	-0.32	-0.14	-47.47	7.65	74.79
1	7	42	-0.65	-0.29	-0.11	-54.65	6.40	93.17
1	7	43	-0.60	-0.27	-0.12	-63.97	0.71	116.86
1	7	44	-0.57	-0.22	-0.46	-48.34	-3.04	148.04
1	7	45	-0.58	-0.22	-0.72	-52.15	4.09	138.61
1	7	46	-0.54	-0.18	-0.54	-53.53	26.53	123.42
1	7	47	-0.51	-0.10	-0.47	-45.78	19.90	149.98
1	7	48	-0.43	-0.09	-0.58	-45.47	10.34	177.48
1	7	49	-0.43	-0.05	-0.92	-35.09	-10.85	197.98
1	8	0	-0.04	0.05	-1.09	-29.22	-13.97	-0.52
1	8	1	-0.06	0.06	-1.45	-17.97	-12.54	-12.96
1	8	2	-0.05	0.01	-1.56	3.47	-3.22	-68.08
1	8	3	0.02	-0.02	-1.42	25.53	0.34	-95.27
1	8	4	0.01	-0.09	-1.38	63.41	6.21	-96.89
1	8	5	-0.07	-0.02	-1.39	75.03	11.40	-103.89
1	8	6	-0.10	-0.08	-1.41	57.60	14.65	-125.96
1	8	7	-0.10	-0.10	-1.36	43.28	17.34	-149.96
1	8	8	-0.14	-0.05	-1.31	43.28	15.40	-160.02
1	8	9	-0.18	-0.00	-1.25	48.03	11.59	-165.83
1	8	10	-0.23	-0.01	-1.12	50.35	5.34	-162.83
1	8	11	-0.28	-0.00	-1.00	54.22	8.84	-176.83
1	8	12	-0.31	0.02	-0.85	55.10	1.53	-176.21
1	8	13	-0.38	-0.06	-0.86	59.53	-8.41	-177.14
1	8	14	-0.37	-0.13	-0.65	48.03	-5.47	-174.96
1	8	15	-0.48	-0.06	-0.67	45.28	-10.97	-158.77
1	8	16	-0.49	-0.11	-0.56	53.85	-22.91	-158.14
1	8	17	-0.55	-0.12	-0.56	47.53	-10.04	-139.89
1	8	18	-0.60	-0.16	-0.51	28.78	-8.41	-140.58
1	8	19	-0.61	-0.22	-0.41	28.60	-11.72	-124.64
1	8	20	-0.67	-0.22	-0.41	38.53	-20.85	-111.64
1	8	21	-0.70	-0.26	-0.39	28.41	-21.22	-115.14
1	8	22	-0.68	-0.31	-0.21	34.28	-19.91	-108.46
1	8	23	-0.79	-0.21	-0.22	43.03	-26.47	-85.89
1	8	24	-0.79	-0.29	-0.24	27.22	-31.97	-83.33
1	8	25	-0.76	-0.40	-0.14	18.03	-23.54	-78.27
1	8	26	-0.76	-0.40	-0.03	23.03	-15.66	-64.39
1	8	27	-0.78	-0.35	0.08	26.85	-15.60	-41.08
1	8	28	-0.78	-0.38	0.19	13.35	-12.54	-23.46
1	8	29	-0.77	-0.36	0.22	2.47	-12.10	7.36
1	8	30	-0.74	-0.38	0.10	-7.28	-11.54	31.36
1	8	31	-0.72	-0.43	0.01	-12.97	-5.54	34.23
1	8	32	-0.71	-0.47	-0.00	-7.34	1.46	32.11
1	8	33	-0.72	-0.46	0.01	-13.72	12.09	38.92
1	8	34	-0.79	-0.37	-0.09	-26.84	15.09	52.42
1	8	35	-0.82	-0.32	-0.17	-39.40	13.65	63.42
1	8	36	-0.80	-0.32	-0.18	-47.40	9.78	74.67
1	8	37	-0.75	-0.30	-0.09	-55.15	2.21	95.36
1	8	38	-0.66	-0.26	-0.18	-64.84	-1.22	119.54
1	8	39	-0.66	-0.23	-0.48	-77.34	0.40	128.92
1	8	40	-0.63	-0.25	-0.58	-67.03	7.15	123.73
1	8	41	-0.63	-0.23	-0.64	-47.09	14.40	122.11
1	8	42	-0.61	-0.21	-0.58	-41.47	15.40	114.61
1	8	43	-0.54	-0.16	-0.49	-38.90	12.71	127.48
1	8	44	-0.53	-0.10	-0.63	-41.90	8.15	150.79
1	8	45	-0.54	-0.09	-0.99	-30.59	0.09	158.36
1	8	46	-0.55	-0.09	-1.09	-44.59	3.40	131.92
1	8	47	-0.48	-0.14	-0.97	-48.15	6.71	114.29
1	8	48	-0.42	-0.12	-0.95	-34.90	15.09	116.36
1	8	49	-0.41	-0.12	-1.09	-30.22	13.78	115.79
1	9	0	-0.00	-0.01	-1.00	-0.15	0.40	-0.21
1	9	1	0.01	0.01	-1.00	-0.28	-0.29	-0.27
1	9	2	-0.00	-0.00	-1.00	-0.22	-0.72	-0.08
1	9	3	-0.00	0.00	-1.00	-0.09	-0.60	0.42
1	9	4	-0.00	-0.00	-1.00	0.03	-0.04	0.79
1	9	5	-0.01	-0.01	-1.00	-0.40	0.34	-1.02
1	9	6	0.00	0.01	-1.00	-0.34	-0.72	-1.21
1	9	7	-0.00	0.00	-1.00	-0.22	0.15	-0.02
1	9	8	-0.01	-0.00	-1.00	-0.28	1.40	-0.39
1	9	9	-0.01	-0.01	-1.00	-0.09	0.96	0.36
1	9	10	-0.00	0.00	-1.00	-0.09	-0.72	0.11
1	9	11	-0.02	-0.02	-1.02	-0.84	-4.41	2.11
1	9	12	-0.06	-0.04	-1.38	20.72	-17.85	3.73
1	9	13	-0.04	-0.00	-1.59	26.91	-1.85	-49.33
1	9	14	-0.00	0.05	-1.40	-1.22	10.59	-86.64
1	9	15	-0.05	-0.06	-1.53	33.35	2.09	-90.58
1	9	16	-0.02	-0.07	-1.64	61.28	4.53	-115.96
1	9	17	-0.05	0.01	-1.64	62.53	12.09	-143.77
1	9	18	-0.11	0.02	-1.72	58.35	4.78	-180.52
1	9	19	-0.08	-0.01	-1.59	58.60	2.21	-216.08
1	9	20	-0.12	-0.01	-1.26	50.41	-5.47	-229.96
1	9	21	-0.17	-0.01	-0.96	36.10	-25.85	-213.02
1	9	22	-0.24	-0.06	-0.83	40.41	-37.47	-223.58
1	9	23	-0.24	-0.06	-0.46	55.16	-38.47	-211.21
1	9	24	-0.34	-0.06	-0.47	60.60	-21.97	-179.08
1	9	25	-0.44	-0.11	-0.55	45.85	-15.60	-172.89
1	9	26	-0.42	-0.21	-0.45	47.03	-8.85	-168.58
1	9	27	-0.48	-0.17	-0.38	48.03	-6.16	-155.89
1	9	28	-0.56	-0.23	-0.33	35.35	-8.54	-145.08
1	9	29	-0.60	-0.23	-0.31	42.85	-14.79	-125.33
1	9	30	-0.61	-0.36	-0.20	38.78	-11.29	-111.71
1	9	31	-0.62	-0.38	0.02	35.60	3.65	-79.58
1	9	32	-0.73	-0.34	-0.06	12.78	1.34	-70.02
1	9	33	-0.74	-0.31	-0.06	14.78	-2.04	-61.14
1	9	34	-0.80	-0.27	-0.17	6.03	-6.04	-57.58
1	9	35	-0.73	-0.34	0.10	4.91	-3.29	-49.33
1	9	36	-0.75	-0.31	0.24	28.22	-3.72	-4.39
1	9	37	-0.80	-0.31	0.14	13.28	-4.66	33.04
1	9	38	-0.77	-0.37	0.09	-8.34	-5.22	63.73
1	9	39	-0.78	-0.31	-0.17	-16.40	-4.54	86.42
1	9	40	-0.78	-0.33	-0.31	-28.22	-1.10	79.54
1	9	41	-0.75	-0.36	-0.35	-37.90	4.09	69.92
1	9	42	-0.73	-0.36	-0.30	-34.97	8.78	65.11
1	9	43	-0.68	-0.35	-0.15	-35.59	12.84	79.29
1	9	44	-0.63	-0.30	-0.01	-38.72	8.34	115.86
1	9	45	-0.52	-0.18	-0.01	-59.72	-1.22	165.54
1	9	46	-0.53	-0.10	-0.66	-73.84	-1.60	191.79
1	9	47	-0.51	-0.22	-0.89	-65.28	3.34	167.79
1	9	48	-0.46	-0.18	-0.74	-37.59	30.46	158.54
1	9	49	-0.41	-0.12	-0.51	-22.03	21.21	175.86
1	10	0	-0.02	0.00	-1.03	-5.34	-13.22	-8.08
1	10	1	-0.02	0.03	-1.06	0.85	-15.85	-12.46
1	10	2	-0.04	0.03	-1.19	23.60	-18.41	-8.46
1	10	3	-0.04	-0.02	-1.23	4.03	-14.10	-28.71
1	10	4	-0.04	-0.00	-1.20	15.16	-10.35	-44.83
1	10	5	-0.03	-0.04	-1.22	27.03	-4.60	-50.33
1	10	6	-0.03	-0.06	-1.23	33.66	1.84	-57.64
1	10	7	-0.07	-0.10	-1.30	30.41	4.96	-68.71
1	10	8	-0.06	-0.10	-1.29	32.22	7.84	-89.33
1	10	9	-0.11	-0.05	-1.37	37.41	21.53	-97.33
1	10	10	-0.15	-0.08	-1.48	37.22	19.90	-122.77
1	10	11	-0.14	-0.08	-1.37	38.10	13.84	-146.14
1	10	12	-0.22	-0.01	-1.33	33.10	9.53	-162.39
1	10	13	-0.22	-0.09	-1.12	40.41	0.15	-173.46
1	10	14	-0.29	-0.06	-1.08	46.41	0.09	-175.46
1	10	15	-0.32	-0.04	-0.99	43.47	-2.72	-187.46
1	10	16	-0.40	0.01	-0.93	31.66	5.21	-187.46
1	10	17	-0.41	-0.05	-0.79	24.41	-7.91	-186.08
1	10	18	-0.44	-0.14	-0.71	41.60	-11.60	-175.08
1	10	19	-0.51	-0.11	-0.65	57.35	-20.60	-172.46
1	10	20	-0.58	-0.08	-0.68	48.91	-17.91	-168.83
1	10	21	-0.61	-0.08	-0.56	41.03	-28.91	-172.33
1	10	22	-0.61	-0.17	-0.42	35.28	-24.35	-155.83
1	10	23	-0.60	-0.29	-0.21	43.16	-25.29	-134.96
1	10	24	-0.65	-0.28	-0.20	57.66	-18.41	-108.08
1	10	25	-0.69	-0.30	-0.16	52.28	-22.47	-102.21
1	10	26	-0.69	-0.32	-0.00	27.72	-15.85	-84.77
1	10	27	-0.71	-0.38	0.02	3.60	-11.16	-68.64
1	10	28	-0.71	-0.38	0.10	8.72	-7.72	-46.39
1	10	29	-0.74	-0.33	0.15	10.66	-4.22	-19.83
1	10	30	-0.77	-0.33	0.10	4.85	-6.35	4.86
1	10	31	-0.75	-0.37	0.09	-1.53	-6.60	19.29
1	10	32	-0.74	-0.37	0.05	-11.40	0.15	34.79
1	10	33	-0.75	-0.36	-0.01	-18.28	5.90	42.29
1	10	34	-0.79	-0.30	-0.13	-23.34	12.09	52.98
1	10	35	-0.85	-0.25	-0.28	-29.78	11.59	55.98
1	10	36	-0.85	-0.27	-0.32	-33.72	8.59	55.92
1	10	37	-0.80	-0.28	-0.24	-32.65	5.59	62.98
1	10	38	-0.75	-0.31	-0.25	-35.97	4.53	76.23
1	10	39	-0.70	-0.33	-0.25	-43.03	3.78	89.11
1	10	40	-0.69	-0.25	-0.41	-46.72	6.53	108.79
1	10	41	-0.71	-0.27	-0.66	-63.65	11.28	95.48
1	10	42	-0.62	-0.33	-0.52	-57.34	23.71	85.67
1	10	43	-0.56	-0.28	-0.27	-42.59	28.03	109.86
1	10	44	-0.46	-0.16	-0.19	-37.47	18.71	165.48
1	10	45	-0.43	0.03	-0.57	-40.59	11.28	207.92
1	10	46	-0.49	0.05	-1.04	-49.59	19.28	214.29
1	10	47	-0.47	-0.11	-1.19	-35.90	19.90	194.67
1	10	48	-0.39	-0.18	-0.96	-13.28	27.96	167.86
1	10	49	-0.26	-0.13	-0.67	-9.22	15.90	177.29
1	11	0	0.00	-0.00	-1.00	-0.40	0.15	-1.46
1	11	1	-0.01	-0.01	-1.00	-0.22	-0.60	-0.14
1	11	2	-0.01	-0.01	-1.00	0.16	-3.35	1.54
1	11	3	-0.00	0.00	-1.00	-0.03	-5.97	0.29
1	11	4	-0.01	0.01	-1.00	0.28	-12.04	1.36
1	11	5	-0.02	0.01	-1.02	-1.97	-23.79	5.86
1	11	6	-0.04	0.03	-1.33	16.85	-24.41	11.36
1	11	7	-0.04	-0.04	-1.67	25.85	-9.29	-40.33
1	11	8	0.03	-0.05	-1.62	16.78	1.71	-99.96
1	11	9	0.05	-0.10	-1.63	48.16	12.34	-125.08
1	11	10	0.01	-0.07	-1.51	62.66	22.28	-141.89
1	11	11	-0.07	-0.05	-1.45	52.10	11.59	-155.83
1	11	12	-0.08	-0.07	-1.35	39.41	0.34	-166.46
1	11	13	-0.15	-0.09	-1.38	40.28	3.09	-179.52
1	11	14	-0.11	-0.08	-1.19	43.28	0.46	-187.52
1	11	15	-0.20	0.01	-1.07	45.16	13.34	-195.58
1	11	16	-0.21	0.02	-0.71	36.22	20.46	-209.21
1	11	17	-0.35	0.02	-0.71	38.41	5.71	-183.52
1	11	18	-0.37	-0.10	-0.71	28.41	-6.22	-185.64
1	11	19	-0.42	-0.09	-0.58	42.16	-4.10	-175.52
1	11	20	-0.50	-0.06	-0.57	40.35	-6.47	-173.27
1	11	21	-0.53	-0.12	-0.43	19.97	-4.91	-171.14
1	11	22	-0.63	-0.08	-0.46	20.85	-14.04	-153.77
1	11	23	-0.64	-0.14	-0.36	11.60	-23.29	-147.08
1	11	24	-0.69	-0.20	-0.22	20.47	-31.60	-127.27
1	11	25	-0.70	-0.26	-0.19	29.60	-30.04	-109.64
1	11	26	-0.77	-0.24	-0.19	24.66	-20.72	-102.52
1	11	27	-0.73	-0.31	0.01	21.41	-19.16	-90.21
1	11	28	-0.78	-0.30	0.07	20.47	-13.60	-55.58
1	11	29	-0.80	-0.23	0.06	-2.65	-11.79	-27.96
1	11	30	-0.76	-0.29	0.13	-21.34	-3.97	-9.02
1	11	31	-0.76	-0.32	0.08	-23.59	-3.29	12.48
1	11	32	-0.72	-0.36	0.10	-19.84	-3.41	29.04
1	11	33	-0.70	-0.41	0.01	-5.15	-6.60	51.29
1	11	34	-0.72	-0.36	-0.08	-16.22	0.09	59.29
1	11	35	-0.75	-0.32	-0.18	-30.90	9.84	62.79
1	11	36	-0.78	-0.26	-0.24	-45.97	15.96	69.11
1	11	37	-0.77	-0.22	-0.27	-49.65	12.96	81.98
1	11	38	-0.75	-0.22	-0.37	-45.53	11.40	97.67
1	11	39	-0.69	-0.22	-0.35	-34.47	12.21	111.61
1	11	40	-0.65	-0.16	-0.39	-32.84	15.84	139.04
1	11	41	-0.59	-0.13	-0.43	-27.28	8.59	161.92
1	11	42	-0.54	-0.06	-0.63	-22.22	3.65	186.42
1	11	43	-0.59	-0.07	-1.00	-45.22	10.40	179.48
1	11	44	-0.50	-0.21	-0.85	-61.59	12.03	135.42
1	11	45	-0.42	-0.16	-0.72	-21.72	7.84	146.17
1	11	46	-0.43	0.00	-0.93	5.72	-8.16	170.29
1	11	47	-0.52	0.06	-1.31	-13.28	-16.72	143.36
1	11	48	-0.44	-0.10	-1.27	-34.90	-1.16	86.23
1	11	49	-0.36	-0.13	-1.06	-42.34	10.03	52.73
1	12	0	-0.00	-0.00	-1.00	-0.15	0.03	0.36
1	12	1	-0.00	0.00	-1.00	-0.15	-0.29	-0.64
1	12	2	-0.02	0.00	-1.01	-0.72	-5.04	-0.08
1	12	3	-0.04	0.02	-1.11	-9.97	-20.29	0.73
1	12	4	-0.08	0.00	-1.58	25.22	-26.47	-19.39
1	12	5	-0.09	0.01	-1.90	12.91	-6.91	-99.83
1	12	6	-0.01	-0.02	-1.90	6.41	8.15	-165.64
1	12	7	0.02	-0.02	-1.62	30.47	20.59	-202.14
1	12	8	-0.09	0.09	-1.55	60.53	7.28	-203.89
1	12	9	-0.15	0.03	-1.77	72.35	-15.66	-242.89
1	12	10	-0.12	0.02	-1.54	66.16	-20.60	-274.14
1	12	11	-0.12	0.17	-1.00	57.60	-25.35	-268.39
1	12	12	-0.30	0.11	-0.87	42.03	-39.97	-229.39
1	12	13	-0.27	-0.23	-0.77	33.91	-30.41	-232.14
1	12	14	-0.33	-0.18	-0.54	52.16	-8.97	-207.14
1	12	15	-0.41	-0.09	-0.50	57.66	-14.91	-191.64
1	12	16	-0.46	-0.08	-0.29	47.47	-13.72	-178.08
1	12	17	-0.54	-0.08	-0.26	42.28	-22.97	-156.52
1	12	18	-0.56	-0.18	-0.30	36.85	-27.10	-145.96
1	12	19	-0.54	-0.27	-0.12	42.22	-14.04	-127.33
1	12	20	-0.61	-0.26	0.05	40.28	-7.85	-94.14
1	12	21	-0.67	-0.26	0.08	33.85	-10.60	-64.27
1	12	22	-0.75	-0.25	-0.09	21.47	-10.91	-47.71
1	12	23	-0.79	-0.27	-0.11	11.53	-11.47	-49.58
1	12	24	-0.81	-0.31	-0.02	22.28	-13.97	-36.08
1	12	25	-0.84	-0.27	0.01	24.60	-12.85	-16.02
1	12	26	-0.86	-0.27	-0.01	10.41	-16.29	0.86
1	12	27	-0.82	-0.34	-0.02	-0.90	-15.91	12.67
1	12	28	-0.80	-0.40	-0.04	-1.03	-13.72	24.54
1	12	29	-0.78	-0.41	-0.03	-3.53	-7.66	34.92
1	12	30	-0.78	-0.38	-0.11	-18.72	-1.04	40.79
1	12	31	-0.78	-0.36	-0.17	-22.90	3.40	36.61
1	12	32	-0.78	-0.35	-0.22	-20.59	8.15	35.11
1	12	33	-0.80	-0.32	-0.24	-28.59	13.03	36.79
1	12	34	-0.79	-0.31	-0.19	-36.53	14.21	48.04
1	12	35	-0.78	-0.30	-0.26	-41.72	11.90	63.67
1	12	36	-0.74	-0.33	-0.30	-49.09	11.53	67.42
1	12	37	-0.65	-0.30	-0.18	-53.09	17.59	84.79
1	12	38	-0.66	-0.24	-0.30	-56.40	17.71	108.29
1	12	39	-0.64	-0.16	-0.47	-55.97	16.40	119.54
1	12	40	-0.63	-0.15	-0.57	-50.40	22.46	122.42
1	12	41	-0.62	-0.14	-0.59	-37.53	30.15	130.11
1	12	42	-0.60	-0.10	-0.53	-36.65	26.15	144.11
1	12	43	-0.51	-0.02	-0.53	-31.47	12.84	170.73
1	12	44	-0.54	0.08	-0.91	-50.78	6.78	188.17
1	12	45	-0.55	0.03	-1.26	-59.59	3.34	168.79
1	12	46	-0.51	-0.13	-1.25	-34.03	5.71	131.98
1	12	47	-0.38	-0.14	-0.91	2.91	15.65	108.29
1	12	48	-0.41	-0.02	-1.00	16.22	5.09	108.98
1	12	49	-0.40	0.02	-1.10	8.60	-13.66	123.04
1	13	0	-0.00	0.00	-1.00	-0.09	-1.16	-0.08
1	13	1	-0.00	0.00	-1.00	-0.15	-0.60	0.04
1	13	2	-0.00	0.00	-1.00	-0.09	0.09	-0.02
1	13	3	-0.01	-0.00	-1.00	-0.15	0.09	-0.08
1	13	4	-0.00	0.00	-1.00	-0.03	-0.16	-0.14
1	13	5	-0.01	0.00	-1.00	-0.22	-0.16	-0.27
1	13	6	-0.03	-0.00	-1.00	-0.22	-7.66	-0.08
1	13	7	-0.02	0.01	-1.09	-0.84	-18.41	-11.27
1	13	8	-0.06	-0.06	-1.56	41.35	-21.97	-20.39
1	13	9	-0.03	-0.10	-1.75	35.72	-0.72	-77.46
1	13	10	0.02	-0.10	-1.73	49.35	16.59	-119.77
1	13	11	-0.09	-0.03	-1.88	74.35	37.59	-163.39
1	13	12	-0.05	0.07	-1.59	52.66	26.46	-222.46
1	13	13	-0.06	0.06	-1.23	52.78	-13.41	-219.64
1	13	14	-0.21	0.00	-1.40	58.16	-38.41	-223.21
1	13	15	-0.16	-0.01	-1.26	47.28	-23.60	-226.33
1	13	16	-0.25	-0.03	-1.12	27.35	9.03	-237.27
1	13	17	-0.27	-0.01	-0.70	22.72	3.21	-233.14
1	13	18	-0.40	-0.04	-0.58	33.35	-16.91	-196.89
1	13	19	-0.46	-0.13	-0.69	39.60	-38.91	-189.71
1	13	20	-0.44	-0.21	-0.54	43.85	-28.47	-185.33
1	13	21	-0.52	-0.14	-0.47	49.41	-21.04	-173.14
1	13	22	-0.53	-0.19	-0.21	39.10	-20.66	-163.39
1	13	23	-0.57	-0.21	-0.17	25.47	-11.04	-135.14
1	13	24	-0.60	-0.29	-0.23	21.66	-7.91	-116.58
1	13	25	-0.63	-0.33	-0.10	35.03	-8.41	-92.52
1	13	26	-0.71	-0.28	-0.10	36.16	-8.91	-77.58
1	13	27	-0.75	-0.26	-0.13	24.78	-7.60	-76.02
1	13	28	-0.78	-0.29	-0.06	12.16	-0.16	-73.02
1	13	29	-0.81	-0.27	0.01	3.22	0.59	-51.27
1	13	30	-0.82	-0.32	0.04	-5.28	-2.16	-32.58
1	13	31	-0.83	-0.31	-0.01	-0.28	-5.47	-14.39
1	13	32	-0.82	-0.31	0.01	2.41	-7.41	-6.46
1	13	33	-0.82	-0.32	0.01	0.60	-6.16	4.54
1	13	34	-0.79	-0.37	0.08	-10.97	-4.60	19.29
1	13	35	-0.77	-0.38	0.10	-15.90	-3.29	46.11
1	13	36	-0.76	-0.38	-0.10	-16.28	-4.72	62.48
1	13	37	-0.77	-0.35	-0.25	-24.59	1.46	56.92
1	13	38	-0.77	-0.36	-0.26	-27.34	9.53	48.54
1	13	39	-0.80	-0.29	-0.27	-29.15	19.21	55.61
1	13	40	-0.80	-0.27	-0.20	-33.47	16.09	65.54
1	13	41	-0.76	-0.28	-0.18	-38.53	11.34	86.61
1	13	42	-0.71	-0.26	-0.27	-48.78	5.96	108.11
1	13	43	-0.68	-0.24	-0.47	-51.65	5.40	122.92
1	13	44	-0.63	-0.24	-0.46	-36.53	9.21	124.17
1	13	45	-0.61	-0.17	-0.46	-13.34	9.46	142.36
1	13	46	-0.60	-0.10	-0.61	-20.34	8.03	163.04
1	13	47	-0.57	-0.10	-0.74	-40.84	10.84	166.92
1	13	48	-0.54	-0.15	-0.80	-50.34	16.78	162.73
1	13	49	-0.48	-0.20	-0.83	-30.59	4.15	160.54
1	14	0	-0.01	-0.00	-1.00	-0.22	0.65	-0.02
1	14	1	-0.00	0.00	-1.00	-0.15	0.53	-0.08
1	14	2	-0.00	0.00	-1.00	-0.15	-0.41	0.04
1	14	3	-0.01	-0.00	-1.00	-0.09	-1.22	-0.08
1	14	4	-0.01	-0.00	-1.00	-0.09	-7.41	0.17
1	14	5	-0.01	-0.00	-1.00	-0.22	-10.91	-0.27
1	14	6	-0.01	0.01	-1.08	-2.84	-22.41	-12.52
1	14	7	-0.06	0.01	-1.49	-2.97	-24.04	-35.52
1	14	8	-0.03	-0.02	-1.68	-2.84	-5.10	-70.77
1	14	9	0.01	-0.03	-1.68	10.72	15.78	-112.77
1	14	10	-0.06	-0.02	-1.67	36.78	23.96	-143.39
1	14	11	-0.09	0.10	-1.47	53.10	13.53	-167.89
1	14	12	-0.12	0.09	-1.32	45.91	-1.72	-176.83
1	14	13	-0.19	0.01	-1.34	43.78	-19.04	-189.83
1	14	14	-0.17	-0.02	-1.12	47.47	-24.47	-194.27
1	14	15	-0.24	0.04	-1.00	42.97	-12.85	-187.77
1	14	16	-0.28	0.04	-0.84	30.28	-14.41	-200.71
1	14	17	-0.32	-0.08	-0.66	26.66	-16.22	-187.08
1	14	18	-0.40	-0.09	-0.73	32.10	-9.10	-170.27
1	14	19	-0.43	-0.11	-0.60	32.35	-15.16	-169.52
1	14	20	-0.48	-0.06	-0.47	42.66	-19.72	-149.52
1	14	21	-0.59	-0.10	-0.60	33.16	-24.22	-144.33
1	14	22	-0.58	-0.23	-0.54	23.47	-13.91	-149.14
1	14	23	-0.64	-0.20	-0.50	29.10	-2.22	-136.71
1	14	24	-0.70	-0.20	-0.44	33.03	-6.29	-131.89
1	14	25	-0.74	-0.17	-0.41	40.72	-16.97	-125.21
1	14	26	-0.79	-0.18	-0.36	26.35	-18.91	-131.89
1	14	27	-0.74	-0.26	-0.10	20.66	-20.97	-124.64
1	14	28	-0.76	-0.28	-0.04	28.28	-18.79	-92.27
1	14	29	-0.78	-0.24	-0.04	15.47	-12.47	-73.58
1	14	30	-0.77	-0.29	0.05	-8.34	-2.79	-60.46
1	14	31	-0.77	-0.28	0.02	-9.34	2.90	-38.33
1	14	32	-0.79	-0.28	0.04	-8.72	0.96	-28.46
1	14	33	-0.78	-0.30	0.16	-9.72	-0.72	-7.89
1	14	34	-0.76	-0.34	0.26	-12.59	-1.66	21.54
1	14	35	-0.76	-0.31	0.06	-13.53	0.03	56.86
1	14	36	-0.79	-0.32	-0.17	-19.15	-0.85	59.42
1	14	37	-0.79	-0.31	-0.16	-19.97	5.34	54.67
1	14	38	-0.81	-0.24	-0.16	-37.65	17.34	62.48
1	14	39	-0.81	-0.23	-0.25	-50.28	21.84	67.92
1	14	40	-0.78	-0.25	-0.22	-50.22	21.34	76.36
1	14	41	-0.74	-0.24	-0.18	-41.47	19.40	94.11
1	14	42	-0.68	-0.18	-0.08	-52.03	20.03	119.92
1	14	43	-0.57	-0.07	-0.08	-64.15	13.40	161.29
1	14	44	-0.59	0.03	-0.53	-73.59	3.53	193.61
1	14	45	-0.58	-0.06	-0.90	-48.40	-7.10	184.73
1	14	46	-0.61	-0.07	-0.99	-29.90	8.78	162.29
1	14	47	-0.59	-0.01	-0.87	-29.59	25.03	141.17
1	14	48	-0.54	-0.02	-0.77	-29.47	19.78	143.61
1	14	49	-0.43	-0.07	-0.71	-20.40	5.65	160.11
1	15	0	-0.00	0.00	-1.00	-0.15	1.03	-0.02
1	15	1	-0.00	-0.00	-1.00	-0.22	0.84	-0.02
1	15	2	-0.00	0.00	-1.00	-0.09	0.03	0.04
1	15	3	-0.01	-0.00	-1.00	0.03	-0.22	-0.08
1	15	4	-0.00	0.00	-1.00	-0.09	1.03	-0.02
1	15	5	-0.01	-0.00	-1.00	-0.03	0.71	-0.08
1	15	6	-0.00	-0.00	-1.00	-0.09	0.34	-0.02
1	15	7	0.00	0.01	-1.00	-0.03	-0.22	-0.14
1	15	8	-0.01	-0.00	-1.00	0.03	-0.29	-0.21
1	15	9	-0.02	-0.00	-1.08	1.47	-11.85	-12.14
1	15	10	-0.05	0.00	-1.60	21.35	-9.22	-29.02
1	15	11	-0.10	0.00	-1.91	5.85	8.71	-98.14
1	15	12	-0.01	-0.08	-1.71	2.16	23.15	-160.71
1	15	13	-0.03	-0.11	-1.53	51.85	21.46	-187.96
1	15	14	-0.06	0.03	-1.39	97.22	10.40	-192.52
1	15	15	-0.19	0.09	-1.49	84.53	-6.35	-213.14
1	15	16	-0.18	0.02	-1.46	48.97	-20.10	-246.58
1	15	17	-0.12	-0.06	-1.14	22.47	-1.29	-236.52
1	15	18	-0.32	-0.06	-1.25	9.72	16.53	-239.21
1	15	19	-0.35	-0.04	-1.18	-9.47	18.53	-269.33
1	15	20	-0.32	-0.04	-0.64	16.22	-10.41	-264.96
1	15	21	-0.47	0.02	-0.53	53.91	-47.60	-225.02
1	15	22	-0.51	-0.06	-0.55	39.60	-32.35	-210.58
1	15	23	-0.54	-0.14	-0.42	43.97	-34.41	-202.14
1	15	24	-0.56	-0.08	-0.21	53.35	-33.60	-177.71
1	15	25	-0.65	-0.08	-0.22	34.41	-28.72	-152.39
1	15	26	-0.62	-0.15	-0.09	22.47	-24.35	-131.96
1	15	27	-0.66	-0.23	-0.06	38.41	-22.91	-105.33
1	15	28	-0.69	-0.26	0.01	49.22	-22.54	-89.46
1	15	29	-0.73	-0.25	0.18	44.41	-20.97	-68.96
1	15	30	-0.77	-0.27	0.13	22.41	-18.79	-57.21
1	15	31	-0.77	-0.33	0.14	4.60	-13.91	-50.58
1	15	32	-0.78	-0.31	0.21	10.85	-11.79	-26.46
1	15	33	-0.84	-0.29	0.13	7.03	-8.79	-3.96
1	15	34	-0.85	-0.32	0.11	-0.65	-10.10	6.98
1	15	35	-0.85	-0.32	0.07	-3.34	-9.47	15.36
1	15	36	-0.85	-0.32	-0.00	0.53	-4.60	22.23
1	15	37	-0.89	-0.34	-0.09	-1.28	-0.10	18.79
1	15	38	-0.92	-0.34	-0.13	-4.84	3.09	13.42
1	15	39	-0.92	-0.32	-0.18	-13.15	4.09	7.98
1	15	40	-0.93	-0.31	-0.23	-17.34	8.03	7.98
1	15	41	-0.96	-0.29	-0.27	-15.78	8.71	6.29
1	15	42	-0.97	-0.30	-0.30	-14.59	4.96	7.73
1	15	43	-0.97	-0.30	-0.33	-9.15	0.46	7.73
1	15	44	-0.94	-0.29	-0.27	-9.78	-0.41	5.17
1	15	45	-0.92	-0.30	-0.26	-3.84	-0.04	10.42
1	15	46	-0.93	-0.30	-0.26	-3.72	-1.22	11.98
1	15	47	-0.92	-0.28	-0.23	-11.40	0.59	16.17
1	15	48	-0.89	-0.29	-0.20	-11.03	1.21	20.29
1	15	49	-0.89	-0.27	-0.19	-4.59	1.28	25.48
1	16	0	-0.01	-0.00	-1.00	-0.09	0.15	-0.08
1	16	1	-0.01	-0.00	-1.00	-0.15	1.78	-0.14
1	16	2	-0.01	-0.00	-1.00	-0.15	3.15	-0.08
1	16	3	-0.00	0.01	-1.00	-0.09	2.78	-0.27
1	16	4	0.00	0.01	-1.00	-0.03	0.21	-0.14
1	16	5	-0.04	-0.01	-1.02	0.78	-8.54	-3.14
1	16	6	-0.05	0.02	-1.32	19.28	-32.04	-38.02
1	16	7	-0.09	-0.04	-1.93	22.97	-16.91	-60.96
1	16	8	0.02	-0.02	-1.73	-15.09	19.59	-147.46
1	16	9	-0.05	-0.04	-1.52	23.66	23.71	-158.33
1	16	10	-0.10	-0.08	-1.70	91.85	16.34	-180.83
1	16	11	-0.12	-0.02	-1.73	94.35	16.40	-232.52
1	16	12	-0.11	0.11	-1.51	77.91	5.09	-261.46
1	16	13	-0.20	0.16	-1.30	58.35	-2.16	-255.77
1	16	14	-0.25	-0.02	-1.18	25.28	0.78	-249.46
1	16	15	-0.29	-0.13	-1.00	33.28	4.71	-262.46
1	16	16	-0.32	-0.08	-0.65	61.66	-13.04	-245.33
1	16	17	-0.40	-0.11	-0.62	80.22	-19.97	-222.71
1	16	18	-0.43	-0.14	-0.43	76.16	-15.54	-202.83
1	16	19	-0.51	-0.11	-0.22	65.85	-13.66	-171.83
1	16	20	-0.57	-0.11	-0.44	57.35	-17.85	-162.64
1	16	21	-0.57	-0.17	-0.35	31.35	-4.72	-172.21
1	16	22	-0.59	-0.17	-0.03	33.03	-11.85	-156.64
1	16	23	-0.65	-0.11	0.05	56.16	-29.79	-120.33
1	16	24	-0.65	-0.22	0.13	53.66	-33.22	-98.58
1	16	25	-0.68	-0.27	0.25	49.72	-30.35	-68.89
1	16	26	-0.74	-0.27	0.19	39.22	-25.29	-55.08
1	16	27	-0.77	-0.34	0.20	13.28	-10.35	-50.64
1	16	28	-0.80	-0.30	0.26	-11.90	2.71	-38.58
1	16	29	-0.81	-0.30	0.26	-19.78	1.78	-13.58
1	16	30	-0.80	-0.31	0.27	-7.72	-7.79	15.86
1	16	31	-0.83	-0.33	0.13	-3.53	-13.91	37.73
1	16	32	-0.85	-0.37	-0.05	-4.40	-12.04	45.17
1	16	33	-0.86	-0.42	-0.12	-17.34	-3.47	34.86
1	16	34	-0.89	-0.38	-0.16	-31.84	6.90	26.42
1	16	35	-0.90	-0.36	-0.20	-34.90	8.34	21.04
1	16	36	-0.88	-0.35	-0.19	-29.72	5.90	26.79
1	16	37	-0.88	-0.34	-0.22	-25.47	4.28	32.92
1	16	38	-0.84	-0.34	-0.17	-28.53	6.28	39.79
1	16	39	-0.80	-0.35	-0.09	-34.47	11.15	53.92
1	16	40	-0.78	-0.31	-0.10	-46.03	15.46	70.61
1	16	41	-0.76	-0.31	-0.14	-49.28	15.53	81.98
1	16	42	-0.74	-0.22	-0.14	-59.97	14.96	102.67
1	16	43	-0.74	-0.16	-0.38	-89.09	22.90	109.73
1	16	44	-0.66	-0.21	-0.29	-95.03	40.40	107.42
1	16	45	-0.59	-0.21	-0.19	-60.28	41.53	139.54
1	16	46	-0.62	-0.08	-0.38	-42.90	25.28	178.11
1	16	47	-0.68	-0.03	-0.77	-55.34	10.65	188.73
1	16	48	-0.64	-0.08	-0.93	-54.72	4.59	160.73
1	16	49	-0.62	-0.17	-0.90	-31.78	6.09	142.73
1	17	0	-0.00	0.00	-1.00	-0.09	-0.16	0.04
1	17	1	-0.01	-0.00	-1.00	-0.22	-0.29	-0.02
1	17	2	-0.00	0.00	-1.00	-0.15	0.09	-0.08
1	17	3	-0.00	0.00	-1.00	-0.09	1.03	-0.39
1	17	4	-0.00	-0.00	-1.00	-0.22	1.71	-0.33
1	17	5	-0.00	0.01	-1.05	0.35	1.65	-9.21
1	17	6	-0.07	-0.01	-1.34	16.22	-7.91	-26.08
1	17	7	-0.06	-0.06	-1.68	13.78	-3.29	-53.83
1	17	8	-0.06	-0.00	-1.67	7.16	19.84	-119.27
1	17	9	-0.04	-0.04	-1.57	37.28	24.84	-144.08
1	17	10	-0.07	-0.05	-1.61	79.85	38.59	-171.02
1	17	11	-0.10	-0.04	-1.61	82.22	31.78	-207.96
1	17	12	-0.14	0.02	-1.61	77.53	15.40	-241.89
1	17	13	-0.14	-0.01	-1.44	35.22	10.53	-284.77
1	17	14	-0.16	-0.07	-1.16	8.03	9.53	-272.27
1	17	15	-0.32	0.01	-1.12	16.03	10.71	-268.89
1	17	16	-0.31	-0.03	-0.79	36.78	4.34	-256.64
1	17	17	-0.39	-0.15	-0.55	65.72	2.53	-217.96
1	17	18	-0.53	-0.04	-0.43	88.22	-13.47	-188.96
1	17	19	-0.54	-0.02	-0.37	64.78	-20.10	-171.02
1	17	20	-0.60	-0.06	-0.41	39.53	-18.22	-165.08
1	17	21	-0.62	-0.04	-0.36	29.85	-19.22	-163.64
1	17	22	-0.62	-0.08	-0.15	36.47	-19.79	-145.46
1	17	23	-0.66	-0.07	0.07	66.28	-33.54	-103.64
1	17	24	-0.71	-0.13	-0.04	60.28	-42.41	-85.02
1	17	25	-0.69	-0.26	0.02	48.97	-39.91	-85.71
1	17	26	-0.72	-0.30	0.18	31.72	-30.35	-80.58
1	17	27	-0.76	-0.35	0.27	15.28	-24.04	-61.77
1	17	28	-0.80	-0.34	0.15	9.78	-20.35	-39.71
1	17	29	-0.80	-0.37	0.13	0.28	-15.97	-26.96
1	17	30	-0.82	-0.36	0.13	-8.84	-10.47	-9.33
1	17	31	-0.80	-0.40	0.13	-17.65	-10.22	1.17
1	17	32	-0.81	-0.38	0.07	-9.59	-5.91	20.98
1	17	33	-0.86	-0.36	-0.08	-15.78	-3.79	22.54
1	17	34	-0.85	-0.36	-0.12	-14.47	0.96	21.11
1	17	35	-0.86	-0.36	-0.11	-13.40	4.65	18.23
1	17	36	-0.87	-0.36	-0.16	-10.28	6.71	23.73
1	17	37	-0.89	-0.36	-0.19	-11.15	8.84	25.04
1	17	38	-0.90	-0.34	-0.18	-18.65	11.59	25.98
1	17	39	-0.85	-0.32	-0.07	-30.28	10.71	30.11
1	17	40	-0.79	-0.35	-0.02	-35.22	7.59	41.67
1	17	41	-0.74	-0.35	0.03	-33.15	8.09	58.67
1	17	42	-0.74	-0.30	-0.12	-45.84	16.21	76.04
1	17	43	-0.73	-0.27	-0.21	-54.09	20.59	80.29
1	17	44	-0.69	-0.28	-0.11	-47.15	18.03	87.54
1	17	45	-0.63	-0.28	-0.00	-28.22	10.53	120.67
1	17	46	-0.65	-0.16	-0.25	-19.40	0.46	163.17
1	17	47	-0.67	-0.15	-0.53	-29.65	-9.85	168.73
1	17	48	-0.66	-0.09	-0.64	-64.65	6.15	160.86
1	17	49	-0.67	-0.05	-0.73	-95.53	19.96	149.17
1	18	0	-0.00	-0.01	-1.00	-0.03	0.40	-0.71
1	18	1	0.00	0.01	-1.00	-0.15	0.09	-0.64
1	18	2	-0.01	-0.01	-1.00	-0.22	-0.22	-0.64
1	18	3	0.00	0.01	-1.00	0.03	0.15	0.23
1	18	4	-0.01	0.00	-1.00	-0.09	0.34	-0.64
1	18	5	-0.02	0.02	-1.00	-0.59	-9.91	-3.71
1	18	6	-0.00	0.07	-1.09	0.03	-14.91	1.67
1	18	7	-0.07	0.03	-1.48	18.85	-14.91	-11.14
1	18	8	-0.01	-0.08	-1.61	-16.34	16.03	-86.08
1	18	9	-0.03	-0.06	-1.63	5.53	24.09	-119.46
1	18	10	-0.04	-0.14	-1.75	59.53	28.65	-157.52
1	18	11	-0.05	-0.03	-1.68	92.85	22.34	-202.89
1	18	12	-0.09	0.04	-1.64	103.66	9.53	-239.96
1	18	13	-0.05	-0.00	-1.51	92.22	19.90	-265.02
1	18	14	-0.17	0.08	-1.26	57.85	16.34	-272.21
1	18	15	-0.29	-0.01	-1.27	33.03	5.71	-261.27
1	18	16	-0.28	-0.08	-1.00	51.85	-2.41	-275.52
1	18	17	-0.38	-0.04	-0.77	63.72	-7.79	-255.89
1	18	18	-0.45	-0.05	-0.64	68.97	-25.66	-238.58
1	18	19	-0.44	-0.13	-0.30	77.10	-22.35	-201.96
1	18	20	-0.60	-0.07	-0.47	68.53	-17.85	-176.33
1	18	21	-0.55	-0.21	-0.31	39.41	-13.60	-186.71
1	18	22	-0.55	-0.21	-0.13	36.22	-2.60	-162.02
1	18	23	-0.62	-0.16	-0.06	36.22	-9.66	-137.71
1	18	24	-0.62	-0.19	0.05	31.60	-15.16	-114.77
1	18	25	-0.63	-0.26	0.19	29.28	-14.91	-95.39
1	18	26	-0.67	-0.28	0.26	41.91	-15.16	-65.52
1	18	27	-0.74	-0.25	0.24	32.78	-16.10	-53.58
1	18	28	-0.75	-0.32	0.27	8.16	-10.22	-43.64
1	18	29	-0.77	-0.31	0.31	-13.09	-1.41	-18.02
1	18	30	-0.79	-0.28	0.24	-17.22	-1.22	9.92
1	18	31	-0.80	-0.29	0.15	-18.15	-5.10	24.11
1	18	32	-0.82	-0.34	0.08	-12.40	-6.35	34.04
1	18	33	-0.82	-0.37	0.02	-10.78	-4.16	36.73
1	18	34	-0.83	-0.37	-0.00	-20.34	3.46	37.73
1	18	35	-0.85	-0.34	-0.07	-29.34	9.09	38.61
1	18	36	-0.83	-0.29	-0.03	-35.90	9.78	43.29
1	18	37	-0.80	-0.33	-0.04	-39.03	7.21	55.98
1	18	38	-0.76	-0.36	-0.08	-43.15	8.21	66.67
1	18	39	-0.74	-0.34	-0.13	-51.28	18.78	74.98
1	18	40	-0.73	-0.23	-0.06	-56.03	22.90	88.73
1	18	41	-0.73	-0.16	-0.09	-62.84	18.34	114.48
1	18	42	-0.65	-0.14	-0.09	-62.15	0.46	141.73
1	18	43	-0.59	-0.16	-0.37	-58.53	-15.47	172.29
1	18	44	-0.55	-0.15	-0.61	-50.90	-8.97	181.42
1	18	45	-0.64	-0.02	-0.77	-58.78	9.21	175.17
1	18	46	-0.65	-0.01	-0.89	-69.40	19.34	163.04
1	18	47	-0.60	-0.09	-0.85	-66.72	22.84	162.29
1	18	48	-0.49	-0.18	-0.76	-50.90	13.90	170.23
1	18	49	-0.39	-0.15	-0.82	-20.72	4.78	182.04
1	19	0	-0.00	0.00	-1.00	-0.15	-0.97	0.04
1	19	1	-0.00	-0.00	-1.00	-0.09	-1.35	-0.02
1	19	2	-0.00	0.00	-1.00	-0.09	-1.16	0.11
1	19	3	-0.00	0.00	-1.00	-0.09	0.59	-0.14
1	19	4	-0.02	0.00	-1.00	-0.03	-1.72	-0.39
1	19	5	-0.01	0.03	-1.02	-1.78	-13.22	-1.21
1	19	6	-0.04	0.06	-1.33	3.47	-18.60	-24.33
1	19	7	-0.10	-0.05	-1.76	7.66	-11.79	-58.52
1	19	8	-0.00	-0.08	-1.71	-6.97	9.53	-120.33
1	19	9	-0.04	-0.08	-1.69	32.78	20.71	-154.14
1	19	10	-0.08	-0.02	-1.56	78.66	19.28	-196.96
1	19	11	-0.15	0.05	-1.46	81.22	8.96	-227.77
1	19	12	-0.13	0.04	-1.37	76.47	-6.04	-256.46
1	19	13	-0.18	0.13	-1.30	34.16	6.53	-268.83
1	19	14	-0.28	-0.01	-1.29	-1.34	-0.97	-271.08
1	19	15	-0.33	-0.06	-1.20	9.60	-5.10	-294.27
1	19	16	-0.34	0.01	-0.86	50.16	-14.41	-277.21
1	19	17	-0.47	-0.02	-0.49	87.53	-34.66	-236.21
1	19	18	-0.51	-0.20	-0.23	89.66	-31.66	-187.83
1	19	19	-0.62	-0.13	-0.39	78.72	-29.54	-145.52
1	19	20	-0.65	-0.15	-0.56	33.60	-19.54	-157.46
1	19	21	-0.63	-0.20	-0.34	20.41	-14.22	-162.71
1	19	22	-0.63	-0.16	-0.15	44.03	-21.91	-135.27
1	19	23	-0.67	-0.15	-0.09	47.85	-20.54	-107.27
1	19	24	-0.68	-0.22	-0.01	46.03	-17.47	-84.08
1	19	25	-0.70	-0.28	0.03	45.16	-19.97	-73.14
1	19	26	-0.73	-0.29	0.06	44.22	-18.79	-62.89
1	19	27	-0.74	-0.33	0.07	29.03	-13.60	-64.14
1	19	28	-0.75	-0.27	0.24	22.91	-8.41	-47.27
1	19	29	-0.79	-0.24	0.28	7.53	-3.66	-24.46
1	19	30	-0.78	-0.27	0.38	-5.03	-3.16	2.98
1	19	31	-0.77	-0.31	0.26	-6.47	-7.41	33.48
1	19	32	-0.74	-0.36	0.16	-2.47	-9.22	42.73
1	19	33	-0.73	-0.39	0.18	-0.03	-4.60	45.79
1	19	34	-0.76	-0.34	0.15	-13.15	4.21	50.79
1	19	35	-0.83	-0.30	-0.03	-30.28	9.96	59.92
1	19	36	-0.84	-0.29	-0.08	-51.84	14.96	64.98
1	19	37	-0.81	-0.28	-0.08	-59.97	17.03	75.73
1	19	38	-0.76	-0.28	-0.16	-64.09	16.84	87.86
1	19	39	-0.76	-0.25	-0.23	-62.22	19.34	95.11
1	19	40	-0.75	-0.17	-0.20	-56.09	15.21	111.11
1	19	41	-0.73	-0.13	-0.30	-63.59	12.03	129.54
1	19	42	-0.70	-0.10	-0.44	-89.40	15.90	130.73
1	19	43	-0.68	-0.12	-0.59	-100.72	20.84	130.11
1	19	44	-0.65	-0.05	-0.62	-83.15	26.59	133.04
1	19	45	-0.65	0.01	-0.67	-50.40	17.65	149.48
1	19	46	-0.59	-0.12	-0.72	-13.97	-0.85	161.73
1	19	47	-0.50	-0.16	-0.67	1.91	-16.72	170.73
1	19	48	-0.49	0.01	-0.89	-9.09	-20.85	194.17
1	19	49	-0.56	-0.05	-1.35	-31.15	-16.16	162.29
1	20	0	-0.05	-0.01	-1.00	-0.15	-9.41	-0.52
1	20	1	-0.02	0.02	-1.13	2.22	-27.10	-17.27
1	20	2	-0.10	-0.04	-1.93	49.16	-14.54	-38.89
1	20	3	-0.04	-0.14	-2.19	28.97	7.96	-129.08
1	20	4	0.03	-0.11	-1.90	46.91	31.40	-197.71
1	20	5	0.02	-0.08	-1.70	131.66	37.09	-229.33
1	20	6	-0.04	0.04	-1.42	127.97	29.90	-249.14
1	20	7	-0.15	0.09	-1.38	86.22	9.53	-257.96
1	20	8	-0.16	-0.01	-1.29	50.97	4.34	-261.83
1	20	9	-0.27	-0.06	-1.04	25.47	6.59	-267.77
1	20	10	-0.26	-0.10	-0.72	18.22	6.28	-251.14
1	20	11	-0.37	-0.09	-0.69	40.97	4.53	-227.71
1	20	12	-0.42	-0.11	-0.55	54.60	-6.97	-213.83
1	20	13	-0.48	-0.11	-0.31	39.53	-13.47	-198.64
1	20	14	-0.47	-0.23	-0.23	31.97	-11.41	-178.14
1	20	15	-0.53	-0.21	-0.27	38.22	-7.97	-159.27
1	20	16	-0.59	-0.17	-0.23	24.47	0.09	-155.33
1	20	17	-0.62	-0.24	-0.03	17.85	3.65	-133.89
1	20	18	-0.67	-0.25	0.07	34.03	-1.91	-95.96
1	20	19	-0.73	-0.25	0.05	39.41	-6.47	-67.71
1	20	20	-0.79	-0.26	-0.01	33.16	-2.47	-56.33
1	20	21	-0.84	-0.25	-0.04	23.66	-0.10	-52.02
1	20	22	-0.87	-0.25	-0.01	10.66	-0.72	-46.52
1	20	23	-0.88	-0.24	0.08	0.72	0.90	-33.96
1	20	24	-0.88	-0.24	0.06	7.16	-5.97	-15.02
1	20	25	-0.86	-0.25	0.05	5.78	-8.72	0.73
1	20	26	-0.86	-0.24	0.03	-6.15	-5.22	12.48
1	20	27	-0.83	-0.29	0.01	-10.40	-3.54	15.36
1	20	28	-0.81	-0.32	0.00	-4.72	-0.91	14.04
1	20	29	-0.83	-0.30	0.04	-9.97	2.65	14.73
1	20	30	-0.83	-0.31	0.02	-19.47	3.71	22.29
1	20	31	-0.84	-0.28	-0.01	-25.65	6.15	33.42
1	20	32	-0.84	-0.25	0.02	-39.72	8.09	43.42
1	20	33	-0.82	-0.23	-0.05	-41.22	2.09	63.42
1	20	34	-0.82	-0.25	-0.21	-46.15	0.03	70.61
1	20	35	-0.79	-0.28	-0.20	-55.03	6.09	66.48
1	20	36	-0.74	-0.26	-0.06	-54.78	8.53	76.23
1	20	37	-0.70	-0.22	-0.07	-52.84	8.03	107.17
1	20	38	-0.69	-0.16	-0.29	-58.84	8.28	133.98
1	20	39	-0.69	-0.14	-0.58	-58.84	6.53	144.73
1	20	40	-0.70	-0.17	-0.67	-45.90	17.59	140.04
1	20	41	-0.72	-0.11	-0.63	-38.03	16.34	141.98
1	20	42	-0.68	-0.02	-0.63	-37.47	8.40	152.36
1	20	43	-0.66	0.05	-0.83	-53.59	6.21	159.67
1	20	44	-0.66	-0.02	-1.16	-57.97	9.21	143.92
1	20	45	-0.62	-0.16	-1.11	-42.53	16.09	113.67
1	20	46	-0.56	-0.17	-0.80	-31.40	11.90	101.23
1	20	47	-0.49	-0.13	-0.65	-13.22	-9.91	117.11
1	20	48	-0.44	-0.07	-0.88	-4.09	-13.04	124.67
1	20	49	-0.46	-0.09	-1.15	-12.28	-5.29	104.67
1	21	0	-0.01	-0.00	-1.00	-0.22	0.15	-0.39
1	21	1	-0.01	0.00	-1.00	-0.15	0.28	-0.21
1	21	2	-0.02	-0.02	-1.00	-0.28	-4.04	-0.39
1	21	3	-0.02	-0.02	-1.08	-1.47	-15.22	-10.02
1	21	4	-0.06	-0.01	-1.33	23.72	-11.54	-23.39
1	21	5	-0.06	0.02	-1.49	18.91	-6.35	-53.46
1	21	6	-0.07	0.00	-1.56	1.72	3.09	-92.39
1	21	7	-0.01	-0.13	-1.54	28.72	15.71	-120.14
1	21	8	-0.05	-0.11	-1.58	62.03	33.78	-142.71
1	21	9	-0.12	-0.06	-1.69	67.60	37.78	-189.21
1	21	10	-0.08	-0.03	-1.60	68.72	29.21	-232.71
1	21	11	-0.13	0.01	-1.41	73.16	15.40	-254.83
1	21	12	-0.19	0.01	-1.23	74.22	-1.35	-252.21
1	21	13	-0.31	0.03	-1.10	54.72	0.21	-246.02
1	21	14	-0.33	-0.05	-0.89	30.78	4.84	-250.64
1	21	15	-0.41	-0.07	-0.86	33.35	4.84	-245.33
1	21	16	-0.42	-0.12	-0.55	37.10	-12.79	-236.27
1	21	17	-0.53	-0.06	-0.49	57.10	-11.54	-198.89
1	21	18	-0.56	-0.09	-0.48	53.60	-21.97	-196.08
1	21	19	-0.57	-0.16	-0.33	44.53	-15.47	-180.08
1	21	20	-0.62	-0.16	-0.20	38.72	-8.91	-163.27
1	21	21	-0.64	-0.18	-0.12	27.03	-5.54	-138.58
1	21	22	-0.65	-0.23	-0.02	22.97	-5.91	-116.14
1	21	23	-0.67	-0.22	0.16	23.47	-8.16	-87.64
1	21	24	-0.72	-0.24	0.21	17.03	-10.79	-65.71
1	21	25	-0.73	-0.29	0.24	7.35	-9.91	-49.58
1	21	26	-0.75	-0.29	0.16	5.60	0.53	-28.33
1	21	27	-0.80	-0.25	0.18	9.41	-1.47	-14.21
1	21	28	-0.84	-0.21	0.22	4.78	-6.16	5.61
1	21	29	-0.84	-0.23	0.12	-2.72	-8.54	20.92
1	21	30	-0.83	-0.26	0.08	-7.22	-5.60	22.61
1	21	31	-0.82	-0.29	0.12	-6.59	-1.97	27.11
1	21	32	-0.82	-0.32	0.07	-17.34	0.96	35.86
1	21	33	-0.82	-0.40	-0.03	-15.97	-1.47	43.61
1	21	34	-0.85	-0.34	-0.15	-20.09	2.71	50.48
1	21	35	-0.88	-0.29	-0.23	-40.28	9.40	43.92
1	21	36	-0.85	-0.24	-0.18	-54.78	13.28	41.29
1	21	37	-0.82	-0.24	-0.16	-59.90	12.96	47.61
1	21	38	-0.75	-0.28	-0.08	-43.90	8.53	59.98
1	21	39	-0.73	-0.25	-0.02	-37.65	9.53	87.11
1	21	40	-0.72	-0.17	-0.02	-59.22	8.15	119.73
1	21	41	-0.65	-0.07	-0.09	-83.03	2.46	151.54
1	21	42	-0.61	-0.02	-0.37	-115.65	3.03	167.73
1	21	43	-0.56	-0.04	-0.58	-135.47	9.84	167.48
1	21	44	-0.56	-0.06	-0.81	-107.65	33.28	178.23
1	21	45	-0.60	-0.05	-0.87	-65.97	29.84	182.79
1	21	46	-0.62	0.03	-0.93	-57.59	11.53	181.79
1	21	47	-0.52	0.02	-0.88	-73.47	-0.54	170.04
1	21	48	-0.46	0.05	-1.05	-50.28	0.21	173.48
1	21	49	-0.51	0.05	-1.28	-17.84	20.15	116.54
1	22	0	-0.08	0.12	-1.36	10.47	-19.66	-34.39
1	22	1	-0.07	0.09	-1.55	16.03	-14.79	-57.14
1	22	2	-0.07	0.05	-1.48	-2.47	2.09	-102.71
1	22	3	-0.02	-0.05	-1.36	15.97	14.34	-115.83
1	22	4	-0.09	-0.08	-1.40	56.22	24.03	-128.77
1	22	5	-0.11	-0.06	-1.48	64.85	29.71	-156.27
1	22	6	-0.14	-0.04	-1.50	64.03	23.15	-183.33
1	22	7	-0.19	-0.01	-1.42	66.16	12.78	-208.89
1	22	8	-0.21	0.02	-1.23	61.85	7.15	-212.39
1	22	9	-0.26	-0.02	-1.02	46.78	8.09	-204.33
1	22	10	-0.35	-0.06	-1.03	58.60	8.53	-184.77
1	22	11	-0.38	-0.04	-0.97	54.16	6.15	-196.83
1	22	12	-0.37	-0.12	-0.78	46.85	10.96	-205.96
1	22	13	-0.44	-0.16	-0.55	57.72	17.09	-193.89
1	22	14	-0.54	-0.11	-0.51	58.22	12.59	-178.27
1	22	15	-0.57	-0.12	-0.43	50.16	6.21	-172.21
1	22	16	-0.63	-0.13	-0.41	29.66	-2.97	-168.27
1	22	17	-0.64	-0.15	-0.24	7.03	-10.29	-159.71
1	22	18	-0.66	-0.22	-0.22	10.53	-8.54	-132.96
1	22	19	-0.71	-0.21	-0.21	26.91	-7.72	-112.64
1	22	20	-0.74	-0.22	-0.11	38.78	-14.79	-96.71
1	22	21	-0.81	-0.14	-0.06	26.78	-25.47	-84.39
1	22	22	-0.82	-0.19	0.01	-7.15	-23.79	-82.14
1	22	23	-0.77	-0.33	0.06	-13.22	-14.79	-73.77
1	22	24	-0.80	-0.29	0.07	-8.40	-6.22	-53.14
1	22	25	-0.81	-0.26	0.15	-6.15	-7.16	-34.77
1	22	26	-0.81	-0.27	0.21	3.91	-9.79	-4.96
1	22	27	-0.80	-0.26	0.20	2.10	-12.22	24.61
1	22	28	-0.80	-0.33	0.05	-9.84	-5.47	38.86
1	22	29	-0.79	-0.37	0.04	-12.59	-1.29	35.92
1	22	30	-0.79	-0.34	0.03	-10.34	1.53	38.73
1	22	31	-0.82	-0.31	-0.08	-21.97	9.59	43.04
1	22	32	-0.82	-0.30	-0.14	-28.22	15.53	49.61
1	22	33	-0.81	-0.29	-0.09	-31.03	18.46	56.23
1	22	34	-0.76	-0.28	0.08	-32.22	13.84	76.11
1	22	35	-0.70	-0.23	0.02	-37.97	9.15	112.04
1	22	36	-0.71	-0.19	-0.30	-55.34	10.21	125.86
1	22	37	-0.65	-0.17	-0.26	-65.09	21.34	123.61
1	22	38	-0.63	-0.12	-0.22	-66.53	26.96	138.29
1	22	39	-0.58	-0.05	-0.44	-62.03	21.71	163.54
1	22	40	-0.62	-0.08	-0.74	-51.84	21.53	159.73
1	22	41	-0.53	-0.09	-0.47	-37.65	25.46	158.29
1	22	42	-0.50	0.04	-0.53	-32.72	19.71	191.86
1	22	43	-0.52	0.12	-1.00	-40.90	18.84	198.36
1	22	44	-0.55	0.12	-1.24	-42.84	17.03	186.23
1	22	45	-0.48	0.02	-1.22	-41.84	18.40	156.36
1	22	46	-0.49	-0.03	-1.26	-21.78	18.03	115.79
1	22	47	-0.40	-0.01	-1.10	-8.53	-0.91	112.48
1	22	48	-0.37	0.03	-1.20	0.28	-0.66	111.29
1	22	49	-0.37	0.06	-1.30	2.85	-2.35	120.23
1	23	0	-0.08	0.00	-1.55	3.60	20.15	-145.89
1	23	1	-0.09	-0.01	-1.52	55.10	17.34	-176.33
1	23	2	-0.15	0.10	-1.60	81.72	0.65	-197.77
1	23	3	-0.16	0.15	-1.55	76.16	-19.16	-232.64
1	23	4	-0.13	0.04	-1.27	33.35	-0.47	-241.96
1	23	5	-0.33	0.12	-1.34	7.78	4.15	-240.52
1	23	6	-0.30	0.11	-1.03	0.16	-10.29	-240.21
1	23	7	-0.37	0.08	-1.03	27.97	-25.97	-232.64
1	23	8	-0.42	-0.01	-1.10	61.35	-40.22	-244.21
1	23	9	-0.36	-0.02	-0.57	75.53	-26.22	-236.46
1	23	10	-0.49	0.00	-0.20	67.66	-25.72	-203.21
1	23	11	-0.49	-0.19	-0.24	59.47	-38.16	-173.89
1	23	12	-0.53	-0.23	-0.27	47.35	-24.10	-163.52
1	23	13	-0.52	-0.23	-0.08	26.41	-23.54	-157.89
1	23	14	-0.56	-0.20	0.05	27.66	-17.66	-128.14
1	23	15	-0.64	-0.22	0.08	27.91	-10.16	-93.02
1	23	16	-0.72	-0.27	0.01	33.97	-3.91	-71.02
1	23	17	-0.79	-0.22	0.08	25.47	-3.22	-59.27
1	23	18	-0.82	-0.24	0.10	20.53	-10.16	-54.21
1	23	19	-0.83	-0.22	0.16	24.72	-14.91	-38.52
1	23	20	-0.83	-0.23	0.20	20.53	-16.41	-20.33
1	23	21	-0.79	-0.27	0.33	18.60	-18.47	3.98
1	23	22	-0.76	-0.28	0.30	19.35	-17.60	40.92
1	23	23	-0.74	-0.34	0.12	13.10	-16.54	57.17
1	23	24	-0.74	-0.36	0.05	6.60	-8.16	61.11
1	23	25	-0.81	-0.34	-0.11	-19.53	9.46	57.86
1	23	26	-0.85	-0.26	-0.14	-53.78	24.21	46.04
1	23	27	-0.85	-0.25	-0.15	-62.65	21.90	53.36
1	23	28	-0.79	-0.27	-0.15	-51.65	14.78	67.29
1	23	29	-0.81	-0.25	-0.32	-36.28	11.46	86.36
1	23	30	-0.83	-0.20	-0.45	-39.65	14.03	86.23
1	23	31	-0.85	-0.11	-0.48	-45.84	17.09	89.11
1	23	32	-0.83	-0.10	-0.56	-43.97	10.53	92.11
1	23	33	-0.80	-0.18	-0.60	-26.97	2.53	90.67
1	23	34	-0.74	-0.21	-0.48	-3.53	-4.29	100.79
1	23	35	-0.75	-0.14	-0.57	-7.22	-2.35	121.29
1	23	36	-0.74	-0.09	-0.66	-27.28	-1.79	124.29
1	23	37	-0.69	-0.11	-0.77	-36.09	-0.04	124.11
1	23	38	-0.62	-0.20	-0.71	-32.59	9.34	114.73
1	23	39	-0.49	-0.28	-0.49	-10.72	21.53	123.79
1	23	40	-0.39	-0.23	-0.33	24.22	38.03	169.48
1	23	41	-0.47	-0.09	-0.80	39.22	27.59	201.11
1	23	42	-0.54	-0.12	-1.25	-6.34	15.71	161.11
1	23	43	-0.46	-0.13	-1.03	-50.78	34.28	112.61
1	23	44	-0.36	-0.12	-0.79	-25.03	53.59	122.04
1	23	45	-0.32	-0.04	-0.77	9.78	42.34	152.61
1	23	46	-0.38	0.08	-1.27	34.03	9.90	166.23
1	23	47	-0.38	-0.03	-1.46	3.22	5.65	119.42
1	23	48	-0.32	-0.07	-1.29	-28.78	23.34	83.23
1	23	49	-0.27	-0.04	-1.01	-50.09	29.53	74.11
1	24	0	-0.01	-0.08	-1.17	20.10	0.78	-63.71
1	24	1	-0.04	0.01	-1.27	37.66	4.34	-70.27
1	24	2	-0.07	0.01	-1.46	37.85	5.46	-88.58
1	24	3	-0.08	0.01	-1.55	28.41	8.46	-126.08
1	24	4	-0.11	0.02	-1.53	21.35	5.46	-153.33
1	24	5	-0.15	-0.05	-1.50	26.85	-2.72	-179.83
1	24	6	-0.14	-0.08	-1.38	30.91	6.03	-204.46
1	24	7	-0.19	-0.01	-1.21	40.41	2.03	-204.71
1	24	8	-0.28	0.02	-1.24	40.10	-7.04	-206.71
1	24	9	-0.28	0.05	-1.10	36.03	-9.66	-244.39
1	24	10	-0.30	-0.01	-0.76	35.91	-5.66	-231.46
1	24	11	-0.43	-0.08	-0.79	28.97	-3.66	-223.83
1	24	12	-0.43	-0.13	-0.41	21.41	-2.85	-201.46
1	24	13	-0.67	-0.08	-0.54	24.28	-11.85	-180.77
1	24	14	-0.53	-0.11	-0.36	19.78	-23.29	-179.46
1	24	15	-0.58	-0.09	-0.36	33.28	-16.79	-157.39
1	24	16	-0.65	-0.09	-0.29	40.53	-11.79	-143.14
1	24	17	-0.70	-0.09	-0.19	38.03	-15.10	-122.64
1	24	18	-0.73	-0.16	-0.11	22.16	-15.47	-112.96
1	24	19	-0.78	-0.16	-0.06	15.66	-18.35	-101.21
1	24	20	-0.79	-0.19	-0.04	8.16	-21.97	-94.89
1	24	21	-0.82	-0.17	0.08	-5.90	-19.97	-88.39
1	24	22	-0.83	-0.19	0.25	-18.22	-22.10	-69.96
1	24	23	-0.78	-0.32	0.35	-6.97	-20.97	-33.77
1	24	24	-0.79	-0.26	0.26	7.78	-20.47	11.23
1	24	25	-0.79	-0.29	0.07	-6.15	-19.35	20.61
1	24	26	-0.78	-0.36	0.09	-10.22	-4.91	20.79
1	24	27	-0.79	-0.35	0.11	-14.78	7.15	28.17
1	24	28	-0.82	-0.32	0.02	-17.03	10.34	37.48
1	24	29	-0.87	-0.28	-0.09	-20.72	12.21	49.61
1	24	30	-0.87	-0.28	-0.12	-29.84	12.84	60.29
1	24	31	-0.85	-0.23	-0.20	-41.84	17.84	72.36
1	24	32	-0.81	-0.22	-0.30	-52.53	19.84	70.23
1	24	33	-0.79	-0.20	-0.36	-51.59	24.03	66.04
1	24	34	-0.78	-0.17	-0.22	-34.22	20.96	72.29
1	24	35	-0.80	-0.07	-0.27	-37.22	21.53	98.04
1	24	36	-0.80	-0.08	-0.37	-57.22	20.40	106.79
1	24	37	-0.76	-0.06	-0.54	-64.72	21.78	114.92
1	24	38	-0.77	-0.07	-0.63	-65.90	23.65	101.29
1	24	39	-0.69	-0.04	-0.43	-46.47	20.59	115.29
1	24	40	-0.69	0.05	-0.53	-30.53	11.71	144.23
1	24	41	-0.67	0.13	-0.79	-42.22	-0.22	154.54
1	24	42	-0.73	0.08	-1.17	-49.40	0.59	126.92
1	24	43	-0.64	-0.08	-0.98	-37.47	13.34	80.79
1	24	44	-0.54	-0.06	-0.60	-10.40	23.59	94.54
1	24	45	-0.50	0.06	-0.57	9.72	17.09	140.61
1	24	46	-0.52	0.06	-0.93	-2.78	0.21	155.79
1	24	47	-0.54	0.01	-1.36	-12.65	0.09	126.42
1	24	48	-0.49	-0.05	-1.22	-25.40	18.53	76.29
1	24	49	-0.42	-0.04	-0.93	-13.53	41.46	65.17
1	25	0	0.01	0.00	-1.01	-0.09	-2.54	-1.46
1	25	1	0.00	-0.00	-1.00	-0.15	-2.72	1.67
1	25	2	0.00	-0.02	-1.01	-0.09	-6.22	7.42
1	25	3	0.00	-0.01	-1.05	-8.65	-5.22	15.11
1	25	4	0.02	0.01	-1.22	-39.97	6.59	23.61
1	25	5	-0.03	0.05	-1.65	-0.65	7.65	-39.77
1	25	6	0.02	0.00	-1.86	1.97	17.71	-97.96
1	25	7	0.03	-0.08	-1.93	20.03	32.53	-155.64
1	25	8	-0.00	-0.03	-1.86	63.97	28.15	-209.33
1	25	9	0.02	0.08	-1.67	86.41	6.90	-246.89
1	25	10	-0.01	0.08	-1.47	71.53	2.09	-255.58
1	25	11	-0.11	0.01	-1.47	36.10	6.90	-271.02
1	25	12	-0.05	0.08	-1.02	27.91	7.28	-264.89
1	25	13	-0.22	0.11	-0.77	31.60	-6.35	-257.64
1	25	14	-0.23	-0.15	-0.40	29.85	-3.54	-224.33
1	25	15	-0.39	-0.10	-0.70	61.97	1.53	-194.89
1	25	16	-0.39	-0.12	-0.48	42.10	2.09	-204.89
1	25	17	-0.45	-0.07	-0.25	34.78	0.03	-177.89
1	25	18	-0.50	-0.15	-0.23	29.28	-2.60	-159.83
1	25	19	-0.57	-0.12	-0.28	32.85	5.21	-137.71
1	25	20	-0.62	-0.13	-0.18	24.53	9.53	-125.02
1	25	21	-0.70	-0.14	-0.10	20.41	14.21	-97.71
1	25	22	-0.75	-0.12	-0.05	18.16	12.46	-78.27
1	25	23	-0.82	-0.12	-0.08	17.35	8.21	-63.77
1	25	24	-0.86	-0.10	-0.13	16.28	5.34	-61.58
1	25	25	-0.88	-0.11	-0.04	13.41	2.46	-54.02
1	25	26	-0.90	-0.11	0.01	15.78	-4.41	-31.83
1	25	27	-0.91	-0.10	-0.02	11.35	-8.72	-16.08
1	25	28	-0.91	-0.14	-0.09	8.47	-10.22	-5.77
1	25	29	-0.90	-0.16	-0.11	-0.72	-6.97	-1.64
1	25	30	-0.89	-0.17	-0.07	-14.09	-2.72	0.73
1	25	31	-0.88	-0.18	-0.03	-14.84	-4.22	6.92
1	25	32	-0.88	-0.23	-0.10	-7.72	-7.41	12.11
1	25	33	-0.86	-0.27	-0.07	-6.59	-3.85	18.23
1	25	34	-0.87	-0.23	-0.12	-7.34	-0.41	28.67
1	25	35	-0.87	-0.22	-0.14	-14.28	2.53	34.36
1	25	36	-0.86	-0.18	-0.13	-23.84	6.65	42.17
1	25	37	-0.83	-0.19	-0.10	-24.59	-0.29	55.11
1	25	38	-0.79	-0.23	-0.08	-20.09	-7.29	71.98
